pathtime,mj_vx,mj_vy,cc_tgt,px,py,pz,vx,vy,vz,ax,ay,az
0,0.0,0.0,0,-38.26641082763672,5.809211730957031,-11.01068115234375,0.008281305432319641,-0.05844178795814514,0.07135438919067383,-0.7006531953811646,0.5290336608886719,-4.313085556030273
0,0.0,0.0,0,-38.26611328125,5.807543754577637,-11.009506225585938,-0.03785248100757599,-0.09240344166755676,0.09431605786085129,-1.2506917715072632,2.7387239933013916,1.4005070924758911
0,0.0,0.0,0,-38.265750885009766,5.805723190307617,-11.008255004882812,-0.021969560533761978,-0.1666598618030548,0.12728728353977203,-1.329410433769226,-0.5279772877693176,2.5959889888763428
0,0.0,0.0,0,-38.265438079833984,5.804205417633057,-11.007110595703125,-0.016584359109401703,-0.16453468799591064,0.13983330130577087,-1.387366533279419,-0.8768504858016968,1.4544278383255005
0,0.0,0.0,0,-38.26523208618164,5.802402973175049,-11.005783081054688,-0.042969103902578354,-0.24409350752830505,0.1308073103427887,-2.1012415885925293,-2.1558380126953125,-1.6567858457565308
0,0.0,0.0,0,-38.264862060546875,5.8011250495910645,-11.004547119140625,-0.049978844821453094,-0.21334606409072876,0.16396880149841309,-1.5184515714645386,-0.4547617435455322,3.7696454524993896
0,0.0,0.0,0,-38.26445388793945,5.799601078033447,-11.0032958984375,0.008277246728539467,-0.18500027060508728,0.16061462461948395,0.23585234582424164,0.725732147693634,0.1163591593503952
0,0.0,0.0,0,-38.264122009277344,5.798298358917236,-11.002105712890625,0.022051412612199783,-0.18203046917915344,0.16757602989673615,-0.989918053150177,-2.724945545196533,1.1181436777114868
0,0.0,0.0,0,-38.26409149169922,5.796721935272217,-11.000991821289062,-0.014129547402262688,-0.181141197681427,0.10585884749889374,-0.11919847875833511,-0.1860429048538208,-6.2914042472839355
0,0.0,0.0,0,-38.26396560668945,5.795212268829346,-10.999847412109375,-0.07617071270942688,-0.20111671090126038,0.1381613314151764,-1.6681742668151855,1.7397996187210083,2.6150519847869873
0,0.0,0.0,0,-38.26362991333008,5.793760776519775,-10.998748779296875,-0.019125599414110184,-0.22941431403160095,0.1573045700788498,0.2663215696811676,-0.07477536052465439,1.7813595533370972
0,0.0,0.0,0,-38.26327896118164,5.792696952819824,-10.997711181640625,0.015938349068164825,-0.1857256144285202,0.18937437236309052,-0.903912365436554,-2.233091115951538,4.08770751953125
0,0.0,0.0,0,-38.263221740722656,5.791332721710205,-10.996658325195312,0.0192674919962883,-0.14620637893676758,0.13748513162136078,1.4327821731567383,-0.27888962626457214,-4.778095722198486
0,0.0,0.0,0,-38.263084411621094,5.790059566497803,-10.995742797851562,-0.05114781856536865,-0.15292075276374817,0.12533007562160492,-2.589480400085449,-1.6054821014404297,-1.2704434394836426
0,0.0,0.0,0,-38.26292037963867,5.788631439208984,-10.994842529296875,-0.0516473650932312,-0.15175119042396545,0.12786081433296204,-0.1442839354276657,2.952348232269287,-0.062069978564977646
0,0.0,0.0,0,-38.26264190673828,5.787280559539795,-10.994003295898438,-0.010523002594709396,-0.18249192833900452,0.16509215533733368,-0.6557352542877197,-0.784853458404541,3.597752809524536
0,0.0,0.0,0,-38.2624397277832,5.786069393157959,-10.993301391601562,0.0521857924759388,-0.14564497768878937,0.14282488822937012,1.3612754344940186,-0.729213535785675,-1.6639255285263062
0,0.0,0.0,0,-38.26249313354492,5.784820079803467,-10.992523193359375,0.011530999094247818,-0.16142240166664124,0.11979694664478302,0.38587650656700134,-2.9590280055999756,-2.284776210784912
0,0.0,0.0,0,-38.26244354248047,5.783433437347412,-10.99176025390625,-0.040367767214775085,-0.13893580436706543,0.09617037326097488,-0.9575068950653076,0.3759019076824188,-2.3059561252593994
0,0.0,0.0,0,-38.26231002807617,5.782154560089111,-10.991058349609375,-0.04954424500465393,-0.10519459843635559,0.116190105676651,-0.8779472708702087,1.1141620874404907,2.1980085372924805
0,0.0,0.0,0,-38.262149810791016,5.780729293823242,-10.990463256835938,0.0008860453963279724,-0.062292568385601044,0.1320781111717224,0.7366961240768433,2.8235225677490234,1.8111381530761719
0,0.0,0.0,0,-38.262062072753906,5.7793803215026855,-10.989837646484375,0.050158798694610596,-0.07217546552419662,0.1187015026807785,0.9007338285446167,-1.7620291709899902,-1.1968456506729126
0,0.0,0.0,0,-38.26224136352539,5.777862548828125,-10.989273071289062,0.04687681049108505,-0.06445653736591339,0.08658144623041153,2.2120232582092285,0.06967946887016296,-3.215275287628174
0,0.0,0.0,0,-38.26244354248047,5.77618932723999,-10.98858642578125,-0.0064823683351278305,-0.12697820365428925,0.0813293382525444,-0.7221863865852356,-0.20911966264247894,-1.2144500017166138
0,0.0,0.0,0,-38.26271438598633,5.774652481079102,-10.988250732421875,-0.042505376040935516,-0.12252231687307358,0.099629707634449,-0.8446151614189148,0.33327972888946533,1.7558045387268066
0,0.0,0.0,0,-38.2629508972168,5.773052215576172,-10.98785400390625,-0.06599882245063782,-0.14334337413311005,0.07844286412000656,-2.385725736618042,-2.236172914505005,-2.114732503890991
0,0.0,0.0,0,-38.263160705566406,5.771482467651367,-10.987518310546875,-0.0877789631485939,-0.07930006086826324,0.07649599760770798,-0.8622891902923584,2.5546998977661133,0.11350001394748688
0,0.0,0.0,0,-38.2633056640625,5.769533634185791,-10.987045288085938,-0.04356101527810097,-0.136271670460701,0.08674832433462143,0.023972615599632263,0.9322118163108826,0.5206505060195923
0,0.0,0.0,0,-38.26356506347656,5.7678542137146,-10.986801147460938,-0.0093226358294487,-0.15609531104564667,0.14177756011486053,0.2782641053199768,0.47593042254447937,5.337361812591553
0,0.0,0.0,0,-38.26386642456055,5.765794277191162,-10.986419677734375,0.03440404310822487,-0.20603349804878235,0.1169019564986229,0.6007470488548279,-3.7050797939300537,-2.525393009185791
0,0.0,0.0,0,-38.26428985595703,5.763967514038086,-10.986083984375,-0.04553847759962082,-0.16515465080738068,0.09033839404582977,-1.6477042436599731,-1.9757190942764282,-2.2445497512817383
0,0.0,0.0,0,-38.264801025390625,5.761709690093994,-10.985610961914062,-0.08243248611688614,-0.16397595405578613,0.05626804009079933,-0.07930781692266464,2.2024548053741455,-3.7073464393615723
0,0.0,0.0,0,-38.26508712768555,5.759626388549805,-10.98516845703125,-0.10226934403181076,-0.20277419686317444,0.10658478736877441,-1.2730776071548462,1.63296377658844,4.473264694213867
0,0.0,0.0,0,-38.26542663574219,5.757547378540039,-10.984756469726562,-0.025628630071878433,-0.21779368817806244,0.11390946805477142,1.1563235521316528,0.3709433376789093,0.7048260569572449
0,0.0,0.0,0,-38.265872955322266,5.755720615386963,-10.98431396484375,-0.014741551131010056,-0.21836350858211517,0.10939139872789383,0.5626417994499207,-2.653184413909912,-0.19224710762500763
0,0.0,0.0,0,-38.266387939453125,5.753656387329102,-10.9837646484375,-0.036848630756139755,-0.20875787734985352,0.08557248115539551,0.22348034381866455,0.3764314353466034,-2.3970019817352295
0,0.0,0.0,0,-38.26693344116211,5.751639366149902,-10.983139038085938,-0.06960342824459076,-0.2405174970626831,0.10269030928611755,-1.4931639432907104,-0.6027905344963074,1.4146144390106201
0,0.0,0.0,0,-38.267356872558594,5.74965238571167,-10.98260498046875,-0.03832261264324188,-0.19360947608947754,0.10012659430503845,-0.9776227474212646,1.6040390729904175,0.11457204818725586
0,0.0,0.0,0,-38.268001556396484,5.747652530670166,-10.981948852539062,-0.043692898005247116,-0.20881110429763794,0.09241244196891785,-0.5118580460548401,-1.2788749933242798,-0.8045811057090759
0,0.0,0.0,0,-38.268436431884766,5.745602130889893,-10.981353759765625,0.0017816200852394104,-0.1788000911474228,0.09195898473262787,0.680211067199707,2.445927619934082,0.0504242405295372
0,0.0,0.0,0,-38.26907730102539,5.743504047393799,-10.98052978515625,0.0068526491522789,-0.2323446422815323,0.12105660885572433,-0.25185564160346985,-1.3976982831954956,2.5376639366149902
0,0.0,0.0,0,-38.269622802734375,5.741796016693115,-10.979843139648438,0.028241291642189026,-0.15854758024215698,0.12728017568588257,-0.6946114897727966,-0.21692444384098053,1.320141315460205
0,0.0,0.0,0,-38.270164489746094,5.739836692810059,-10.979034423828125,0.028273805975914,-0.1613362431526184,0.09683574736118317,-2.2699196338653564,-2.5869140625,-2.855025291442871
0,0.0,0.0,0,-38.270877838134766,5.737776756286621,-10.978240966796875,0.02755991369485855,-0.11547219008207321,0.08110503852367401,0.6170353293418884,2.120257616043091,-1.4038708209991455
0,0.0,0.0,0,-38.271610260009766,5.735443115234375,-10.977371215820312,0.021562524139881134,-0.17960552871227264,0.09225070476531982,-0.5261514186859131,0.6679011583328247,0.49085840582847595
0,0.0,0.0,0,-38.272464752197266,5.733469009399414,-10.976638793945312,0.0017738789319992065,-0.18547965586185455,0.13959258794784546,-1.0626784563064575,-1.4466216564178467,4.774200916290283
0,0.0,0.0,0,-38.27334976196289,5.731481552124023,-10.975830078125,0.017154738306999207,-0.16883927583694458,0.11280109733343124,-0.8811625242233276,-2.9183568954467773,-2.3118886947631836
0,0.0,0.0,0,-38.27431106567383,5.729454517364502,-10.975006103515625,0.004460915923118591,-0.09926493465900421,0.09471708536148071,0.6096482276916504,2.054403066635132,-1.4546416997909546
0,0.0,0.0,0,-38.27529525756836,5.7272210121154785,-10.974090576171875,-0.015507295727729797,-0.1310288906097412,0.08771073073148727,-0.7197532057762146,1.4966620206832886,-1.0774741172790527
0,0.0,0.0,0,-38.2759895324707,5.72501277923584,-10.9732666015625,-0.026889100670814514,-0.18056079745292664,0.12575076520442963,-0.06020864099264145,-1.1807670593261719,3.4952943325042725
0,0.0,0.0,0,-38.276851654052734,5.722851753234863,-10.97247314453125,-0.059745773673057556,-0.2176705151796341,0.09764713793992996,-0.128433495759964,-3.091733932495117,-2.8770318031311035
0,0.0,0.0,0,-38.277793884277344,5.720803260803223,-10.971588134765625,-0.1341697722673416,-0.17908750474452972,0.07516227662563324,0.2538733184337616,-0.367022305727005,-2.005941390991211
0,0.0,0.0,0,-38.2786750793457,5.718549728393555,-10.97064208984375,-0.18344560265541077,-0.16324330866336823,0.04762383922934532,-1.166727066040039,2.670462131500244,-2.891125440597534
0,0.0,0.0,0,-38.27963638305664,5.716203212738037,-10.96966552734375,-0.17888832092285156,-0.21113480627536774,0.10039418190717697,1.6644366979599,1.9403454065322876,4.729372501373291
0,0.0,0.0,0,-38.28059005737305,5.714004039764404,-10.96875,-0.16392365097999573,-0.2573065161705017,0.09095761924982071,0.48026004433631897,-2.1528868675231934,-1.128455638885498
0,0.0,0.0,0,-38.28166580200195,5.712007522583008,-10.967758178710938,-0.18661431968212128,-0.26515620946884155,0.0652940571308136,0.5153007507324219,-3.9133405685424805,-2.3772478103637695
0,0.0,0.0,0,-38.28253173828125,5.709960460662842,-10.96673583984375,-0.20226868987083435,-0.18116679787635803,0.04307088628411293,-0.15180985629558563,3.183490514755249,-1.8575401306152344
0,0.0,0.0,0,-38.2834358215332,5.707668781280518,-10.965606689453125,-0.19584155082702637,-0.19876451790332794,0.08010777086019516,-0.3116723597049713,2.980428457260132,3.354126214981079
0,0.0,0.0,0,-38.28419876098633,5.705602169036865,-10.964569091796875,-0.15511053800582886,-0.19482159614562988,0.09311642497777939,0.03687945380806923,0.5471476912498474,1.3581817150115967
0,0.0,0.0,0,-38.285118103027344,5.703697204589844,-10.963455200195312,-0.1427360475063324,-0.20100073516368866,0.0681736171245575,-0.05338989570736885,-2.465832471847534,-2.339852809906006
0,0.0,0.0,0,-38.28584671020508,5.701804161071777,-10.96234130859375,-0.12240838259458542,-0.14250901341438293,0.08389763534069061,0.9418748617172241,2.5730466842651367,1.8220301866531372
0,0.0,0.0,0,-38.28679656982422,5.699743270874023,-10.961135864257812,-0.12632541358470917,-0.17324261367321014,0.09475763887166977,-1.155981421470642,-1.0413761138916016,0.9391704797744751
0,0.0,0.0,0,-38.28765106201172,5.6979546546936035,-10.960037231445312,-0.12069457769393921,-0.14558199048042297,0.10101743042469025,-1.0945111513137817,-1.9950859546661377,0.9609596729278564
0,0.0,0.0,0,-38.288604736328125,5.695971965789795,-10.9588623046875,-0.1341317892074585,-0.11900094151496887,0.06174107640981674,-0.2619484066963196,0.7559869885444641,-3.82663893699646
0,0.0,0.0,0,-38.289581298828125,5.693966865539551,-10.957656860351562,-0.15866881608963013,-0.12017857283353806,0.08884423226118088,0.4940255880355835,2.5556674003601074,2.48616886138916
0,0.0,0.0,0,-38.29056930541992,5.691738128662109,-10.956436157226562,-0.1681889295578003,-0.18026959896087646,0.09358956664800644,-0.08767753094434738,0.852831244468689,-0.011786567978560925
0,0.0,0.0,0,-38.29165267944336,5.689698219299316,-10.955169677734375,-0.18529199063777924,-0.2239493429660797,0.11558812856674194,0.5316047668457031,-1.9532244205474854,2.007969617843628
0,0.0,0.0,0,-38.292842864990234,5.687530994415283,-10.9539794921875,-0.2092982530593872,-0.21436874568462372,0.07226566225290298,1.0766586065292358,-0.18770316243171692,-4.286616802215576
0,0.0,0.0,0,-38.29407501220703,5.685379505157471,-10.952682495117188,-0.24334180355072021,-0.21751663088798523,0.08408461511135101,0.9782686829566956,1.3901145458221436,1.0273505449295044
0,0.0,0.0,0,-38.29462432861328,5.683231830596924,-10.951431274414062,-0.20088616013526917,-0.22272828221321106,0.10190229117870331,0.5275212526321411,2.335099458694458,1.613332748413086
0,0.0,0.0,0,-38.29541015625,5.681240081787109,-10.950103759765625,-0.19218087196350098,-0.2524322271347046,0.09286349266767502,-0.1817188411951065,-1.4544812440872192,-1.0149435997009277
0,0.0,0.0,0,-38.296260833740234,5.679227828979492,-10.948822021484375,-0.1856435239315033,-0.2592114508152008,0.06631644070148468,0.8143812417984009,-0.9709073305130005,-2.6430346965789795
0,0.0,0.0,0,-38.29711151123047,5.677237510681152,-10.947601318359375,-0.24191617965698242,-0.2750169038772583,0.08015737682580948,-1.9811426401138306,0.23131950199604034,1.2505160570144653
0,0.0,0.0,0,-38.29779815673828,5.675339698791504,-10.946426391601562,-0.2444370687007904,-0.2327372133731842,0.11240579187870026,-1.2005847692489624,1.8356547355651855,3.4114270210266113
0,0.0,0.0,0,-38.298377990722656,5.673552989959717,-10.945175170898438,-0.19388490915298462,-0.20360217988491058,0.10944503545761108,-0.6146439909934998,-0.4640501141548157,-0.06089545786380768
0,0.0,0.0,0,-38.299156188964844,5.671760559082031,-10.944000244140625,-0.16463825106620789,-0.15145857632160187,0.11257665604352951,1.647133708000183,1.425297498703003,0.5689056515693665
0,0.0,0.0,0,-38.29996109008789,5.669769287109375,-10.942718505859375,-0.1592041403055191,-0.20860004425048828,0.10123468935489655,0.801560640335083,-0.7127195596694946,-1.4876048564910889
0,0.0,0.0,0,-38.3006591796875,5.66808557510376,-10.941513061523438,-0.20541727542877197,-0.19639235734939575,0.12260667979717255,-1.9714347124099731,-0.8381262421607971,2.3047492504119873
0,0.0,0.0,0,-38.30134582519531,5.666367530822754,-10.9403076171875,-0.19128099083900452,-0.18125182390213013,0.11212558299303055,-0.5165551900863647,-0.35974738001823425,-0.9320955872535706
0,0.0,0.0,0,-38.302127838134766,5.664764881134033,-10.939132690429688,-0.21419118344783783,-0.14980769157409668,0.10159321129322052,-0.4265206754207611,0.28369155526161194,-0.8493926525115967
0,0.0,0.0,0,-38.303016662597656,5.662881851196289,-10.937896728515625,-0.22320885956287384,-0.16254080832004547,0.0875130221247673,1.128680944442749,2.178119421005249,-1.6284104585647583
0,0.0,0.0,0,-38.30390930175781,5.661094665527344,-10.936676025390625,-0.2344854325056076,-0.22364896535873413,0.12571385502815247,0.03074677847325802,0.0014809509739279747,3.4217300415039062
0,0.0,0.0,0,-38.30477523803711,5.659350872039795,-10.935516357421875,-0.22343456745147705,-0.2351836860179901,0.12781833112239838,-0.2025286704301834,-0.6337991952896118,0.16874255239963531
0,0.0,0.0,0,-38.30581283569336,5.657848358154297,-10.934524536132812,-0.24286556243896484,-0.23158186674118042,0.11848638206720352,0.5276057720184326,-2.948052167892456,-0.6925294399261475
0,0.0,0.0,0,-38.30670928955078,5.656120777130127,-10.933547973632812,-0.2515782117843628,-0.1855452060699463,0.06592176109552383,0.5231220126152039,2.3670220375061035,-5.102922439575195
0,0.0,0.0,0,-38.30785369873047,5.654294490814209,-10.9324951171875,-0.29391518235206604,-0.22688910365104675,0.08111900091171265,0.14712363481521606,1.3148795366287231,1.1804111003875732
0,0.0,0.0,0,-38.30866241455078,5.652448654174805,-10.9315185546875,-0.25332510471343994,-0.2680726647377014,0.0979631170630455,0.30512887239456177,0.025491846725344658,1.394832730293274
0,0.0,0.0,0,-38.30947494506836,5.6508989334106445,-10.930572509765625,-0.2331629991531372,-0.2701900601387024,0.12469295412302017,-0.22969885170459747,-1.0187981128692627,2.728841781616211
0,0.0,0.0,0,-38.310489654541016,5.649448871612549,-10.929733276367188,-0.19153323769569397,-0.22185663878917694,0.10309077054262161,1.8256034851074219,-0.0650344267487526,-1.8524802923202515
0,0.0,0.0,0,-38.31158447265625,5.647978782653809,-10.92877197265625,-0.22738847136497498,-0.20528244972229004,0.08002204447984695,-1.090943455696106,-0.0344729945063591,-2.1763033866882324
0,0.0,0.0,0,-38.31245803833008,5.646485328674316,-10.92791748046875,-0.18285933136940002,-0.1609640121459961,0.09025083482265472,0.8850667476654053,3.561225414276123,1.0503921508789062
0,0.0,0.0,0,-38.313270568847656,5.644900321960449,-10.926971435546875,-0.15496648848056793,-0.20558810234069824,0.10258746147155762,-0.7836736440658569,-1.0478808879852295,0.9825106859207153
0,0.0,0.0,0,-38.31406784057617,5.643621921539307,-10.9261474609375,-0.1259785145521164,-0.16905346512794495,0.12414099276065826,-0.24484889209270477,0.6017441153526306,2.304755687713623
0,0.0,0.0,0,-38.31489944458008,5.642202377319336,-10.925216674804688,-0.10660835355520248,-0.189067080616951,0.10486456006765366,-0.2470562905073166,-0.9815962910652161,-2.027090549468994
0,0.0,0.0,0,-38.31583786010742,5.640966415405273,-10.92431640625,-0.1391526460647583,-0.15125672519207,0.12964275479316711,-0.5211689472198486,1.114060401916504,2.6748359203338623
0,0.0,0.0,0,-38.31667709350586,5.639584541320801,-10.923324584960938,-0.12194844335317612,-0.17399418354034424,0.13033056259155273,-1.17234206199646,0.33977049589157104,-0.141281396150589
0,0.0,0.0,0,-38.31754684448242,5.638434410095215,-10.922409057617188,-0.11147055774927139,-0.1489601731300354,0.17055444419384003,-1.0637956857681274,0.016960090026259422,4.126743793487549
0,0.0,0.0,0,-38.318538665771484,5.637078285217285,-10.921463012695312,-0.07072880864143372,-0.15128248929977417,0.12913338840007782,1.4760254621505737,-0.3699064254760742,-4.1925740242004395
0,0.0,0.0,0,-38.31968688964844,5.6358137130737305,-10.92047119140625,-0.14014840126037598,-0.1648348718881607,0.1280561238527298,-0.20221957564353943,0.5210021138191223,-0.10981925576925278
0,0.0,0.0,0,-38.32079315185547,5.634387016296387,-10.919479370117188,-0.15579919517040253,-0.2089216709136963,0.10910055041313171,0.162755087018013,0.6187996864318848,-2.1821746826171875
0,0.0,0.0,0,-38.32184982299805,5.633196830749512,-10.918441772460938,-0.19534839689731598,-0.24956896901130676,0.12916354835033417,-1.0363943576812744,-0.6972741484642029,1.8335230350494385
0,0.0,0.0,0,-38.322975158691406,5.632154941558838,-10.917495727539062,-0.19024428725242615,-0.24038395285606384,0.11719208210706711,-0.40006569027900696,-1.6782565116882324,-1.062729835510254
0,0.0,0.0,0,-38.32430648803711,5.631108283996582,-10.916473388671875,-0.22015127539634705,-0.230812668800354,0.11244509369134903,0.49917110800743103,-0.9542170763015747,-0.34623202681541443
0,0.0,0.0,0,-38.3254508972168,5.63010311126709,-10.91552734375,-0.2448069453239441,-0.19203215837478638,0.0773409828543663,0.059847861528396606,1.744234561920166,-3.379230260848999
0,0.0,0.0,0,-38.32658386230469,5.628976821899414,-10.914474487304688,-0.24836400151252747,-0.21530522406101227,0.1173846647143364,-0.0935058444738388,2.9120864868164062,3.676983594894409
0,0.0,0.0,0,-38.32736587524414,5.628155708312988,-10.91351318359375,-0.17054356634616852,-0.19531133770942688,0.13459187746047974,-0.0803467333316803,0.4925606846809387,1.7248246669769287
0,0.0,0.0,0,-38.32834243774414,5.627378463745117,-10.9124755859375,-0.13370053470134735,-0.2005072832107544,0.15572182834148407,0.8861536979675293,-1.2487176656723022,2.1092870235443115
0,0.0,0.0,0,-38.3292121887207,5.626765727996826,-10.911544799804688,-0.10650524497032166,-0.15565313398838043,0.11216716468334198,0.9859743118286133,-1.8790407180786133,-4.0469865798950195
0,0.0,0.0,0,-38.3302001953125,5.625899791717529,-10.910446166992188,-0.13907715678215027,-0.14263083040714264,0.08545944839715958,0.23293732106685638,0.7680546045303345,-2.619051694869995
0,0.0,0.0,0,-38.33096694946289,5.625090599060059,-10.909454345703125,-0.14039883017539978,-0.13785304129123688,0.09049370884895325,-0.3606266677379608,2.3303089141845703,0.3891221284866333
0,0.0,0.0,0,-38.331695556640625,5.624192237854004,-10.908309936523438,-0.12537552416324615,-0.1837189644575119,0.09978711605072021,-1.7117964029312134,-0.4840254783630371,0.6456906199455261
0,0.0,0.0,0,-38.3323974609375,5.623650074005127,-10.90728759765625,-0.08883421123027802,-0.14491917192935944,0.11700645089149475,-0.6114853024482727,-0.5438462495803833,1.8663995265960693
0,0.0,0.0,0,-38.333251953125,5.623050689697266,-10.90618896484375,-0.06979034841060638,-0.15905886888504028,0.09551449865102768,0.2327853888273239,-2.7060117721557617,-2.135873794555664
0,0.0,0.0,0,-38.33416748046875,5.62265682220459,-10.90509033203125,-0.11250753700733185,-0.10436931252479553,0.10355579853057861,-0.31685516238212585,-0.5280827879905701,1.126250147819519
0,0.0,0.0,0,-38.33509826660156,5.621952533721924,-10.9039306640625,-0.11506131291389465,-0.08587493002414703,0.10502555221319199,0.0707872211933136,1.4606356620788574,0.14370813965797424
0,0.0,0.0,0,-38.33598709106445,5.621409893035889,-10.902908325195312,-0.13145402073860168,-0.06818391382694244,0.13068877160549164,-1.0227210521697998,-0.45760348439216614,2.6463661193847656
0,0.0,0.0,0,-38.336971282958984,5.620855331420898,-10.901901245117188,-0.10837619006633759,-0.04614260047674179,0.10627810657024384,0.9741224050521851,-0.5768988132476807,-2.373070001602173
0,0.0,0.0,0,-38.33796691894531,5.620341777801514,-10.900848388671875,-0.11605142802000046,-0.005582839250564575,0.09860976040363312,1.0441433191299438,0.19632157683372498,-0.6086359620094299
0,0.0,0.0,0,-38.33908462524414,5.6195454597473145,-10.8997802734375,-0.11357003450393677,0.007892042398452759,0.06663578748703003,2.731764554977417,3.6966700553894043,-3.2677347660064697
0,0.0,0.0,0,-38.3402099609375,5.6186909675598145,-10.898635864257812,-0.13270652294158936,-0.0726887434720993,0.09486958384513855,1.7429593801498413,1.502884030342102,2.4280502796173096
0,0.0,0.0,0,-38.34124755859375,5.617928504943848,-10.8975830078125,-0.13716061413288116,-0.11464069783687592,0.09723761677742004,-0.2077103555202484,-1.050719141960144,0.05837169662117958
0,0.0,0.0,0,-38.34235382080078,5.6174492835998535,-10.89642333984375,-0.15888342261314392,-0.12057358026504517,0.09319852292537689,-0.36950603127479553,-3.4252076148986816,-0.2824544310569763
0,0.0,0.0,0,-38.343406677246094,5.616776466369629,-10.895278930664062,-0.1894885152578354,-0.06471256911754608,0.04247625544667244,-0.3217293322086334,2.45149827003479,-4.92909049987793
0,0.0,0.0,0,-38.3445930480957,5.61600399017334,-10.894027709960938,-0.2626801133155823,-0.11008913815021515,0.05260724201798439,0.036461807787418365,1.6020901203155518,0.6808170676231384
0,0.0,0.0,0,-38.345314025878906,5.6152544021606445,-10.892852783203125,-0.23387864232063293,-0.1260199099779129,0.08214962482452393,-0.5821357369422913,1.2608942985534668,2.76216197013855
0,0.0,0.0,0,-38.346168518066406,5.614616394042969,-10.891555786132812,-0.2019513100385666,-0.1181437224149704,0.12573787569999695,-0.12397430837154388,0.7558733224868774,4.3045654296875
0,0.0,0.0,0,-38.34688186645508,5.6142072677612305,-10.890274047851562,-0.11571106314659119,-0.05243811011314392,0.13849696516990662,0.6898017525672913,-0.1258935183286667,1.5852805376052856
0,0.0,0.0,0,-38.34782409667969,5.6135430335998535,-10.888809204101562,-0.11565840244293213,-0.03122258186340332,0.11277111619710922,-0.48432043194770813,-0.6306105852127075,-2.4272923469543457
0,0.0,0.0,0,-38.34873962402344,5.612866401672363,-10.887374877929688,-0.11416228115558624,-0.021024174988269806,0.13401180505752563,0.6006869673728943,2.3624536991119385,2.0354275703430176
0,0.0,0.0,0,-38.34956359863281,5.612082004547119,-10.885848999023438,-0.11008109897375107,-0.06534083187580109,0.13223664462566376,-0.7445406317710876,0.10470002889633179,-0.5017351508140564
0,0.0,0.0,0,-38.35007858276367,5.611581325531006,-10.884521484375,-0.11962445080280304,-0.07704094797372818,0.16249865293502808,-0.20834536850452423,-0.7153171896934509,2.9889848232269287
0,0.0,0.0,0,-38.35053634643555,5.610958099365234,-10.883010864257812,-0.12197302281856537,-0.10326208919286728,0.13523879647254944,-1.0182172060012817,-2.369555711746216,-2.7674221992492676
0,0.0,0.0,0,-38.35132598876953,5.610589981079102,-10.881484985351562,-0.18524372577667236,-0.06283742934465408,0.1336534172296524,0.06485621631145477,-0.7219843864440918,0.2031860649585724
0,0.0,0.0,0,-38.35196304321289,5.609947681427002,-10.879898071289062,-0.21488338708877563,-0.042904067784547806,0.10087871551513672,-0.26008057594299316,3.3421170711517334,-3.3611900806427
0,0.0,0.0,0,-38.35269546508789,5.609339237213135,-10.878265380859375,-0.24737806618213654,-0.09466015547513962,0.1529826521873474,0.1272459775209427,1.7408101558685303,4.7227301597595215
0,0.0,0.0,0,-38.35326385498047,5.6087541580200195,-10.876617431640625,-0.19991764426231384,-0.12478533387184143,0.1691594272851944,0.6405696272850037,0.03740565478801727,1.3516250848770142
0,0.0,0.0,0,-38.353939056396484,5.608431816101074,-10.874954223632812,-0.20553645491600037,-0.12054087221622467,0.2038143128156662,-0.760848879814148,-0.5501332879066467,3.5324628353118896
0,0.0,0.0,0,-38.35463333129883,5.608113765716553,-10.87322998046875,-0.15438517928123474,-0.10982194542884827,0.15974567830562592,2.5589356422424316,-1.0472170114517212,-4.291182518005371
0,0.0,0.0,0,-38.35539627075195,5.607919216156006,-10.8714599609375,-0.22638744115829468,-0.09487081319093704,0.13927282392978668,-1.243141531944275,-1.5720019340515137,-1.80203378200531
0,0.0,0.0,0,-38.3560791015625,5.607636451721191,-10.8697509765625,-0.23343949019908905,-0.0499609038233757,0.10023541748523712,1.307368278503418,2.7472000122070312,-3.7958528995513916
0,0.0,0.0,0,-38.35665512084961,5.60720157623291,-10.867996215820312,-0.26557156443595886,-0.12504842877388,0.12136563658714294,-0.8303865790367126,0.7203804850578308,1.5368682146072388
0,0.0,0.0,0,-38.35704803466797,5.607069969177246,-10.866363525390625,-0.24569332599639893,-0.10675130039453506,0.14312374591827393,-0.16757585108280182,1.2885726690292358,2.2059850692749023
0,0.0,0.0,0,-38.357391357421875,5.606955051422119,-10.864669799804688,-0.20149077475070953,-0.11798323690891266,0.16158947348594666,0.11306045949459076,-0.13599564135074615,1.7577062845230103
0,0.0,0.0,0,-38.35777282714844,5.607117176055908,-10.863128662109375,-0.1730465441942215,-0.07319687306880951,0.16214106976985931,-0.5818319320678711,-0.3044455349445343,0.3550633490085602
0,0.0,0.0,0,-38.358219146728516,5.607143402099609,-10.861465454101562,-0.14767059683799744,-0.05271979048848152,0.1446046233177185,0.08884306997060776,-0.30959352850914,-1.6385749578475952
0,0.0,0.0,0,-38.358524322509766,5.607283115386963,-10.85986328125,-0.15459051728248596,-0.004899440333247185,0.16286958754062653,-0.3281031548976898,3.3224592208862305,1.9036637544631958
0,0.0,0.0,0,-38.35893249511719,5.607261657714844,-10.858230590820312,-0.132883682847023,-0.06684929132461548,0.1716950386762619,-0.40522563457489014,-1.242606520652771,0.5371102094650269
0,0.0,0.0,0,-38.35922622680664,5.607521057128906,-10.856674194335938,-0.13399673998355865,-0.06042104959487915,0.1965530514717102,-0.5016327500343323,-0.786634624004364,2.563769817352295
0,0.0,0.0,0,-38.35979080200195,5.607502460479736,-10.855194091796875,-0.1379881650209427,-0.09602902829647064,0.15327319502830505,1.2710824012756348,-2.0172157287597656,-4.428890228271484
0,0.0,0.0,0,-38.36035919189453,5.607742786407471,-10.853729248046875,-0.20219437777996063,-0.0752139464020729,0.11570941656827927,0.0852598175406456,-0.8662199378013611,-3.564338207244873
0,0.0,0.0,0,-38.361026763916016,5.607731342315674,-10.852294921875,-0.26249217987060547,-0.05924640968441963,0.09290765970945358,0.6350629925727844,3.93700909614563,-2.440112352371216
0,0.0,0.0,0,-38.36137390136719,5.607635498046875,-10.850830078125,-0.26749560236930847,-0.14921022951602936,0.13193467259407043,-0.8957167863845825,0.1410302221775055,3.3209943771362305
0,0.0,0.0,0,-38.361602783203125,5.607837200164795,-10.84954833984375,-0.21290719509124756,-0.11821506172418594,0.1552170366048813,-0.2101685255765915,0.6760969758033752,2.4650938510894775
0,0.0,0.0,0,-38.361900329589844,5.608097076416016,-10.848068237304688,-0.15299874544143677,-0.13587240874767303,0.15146659314632416,0.8468482494354248,-0.8270614147186279,-0.46224015951156616
0,0.0,0.0,0,-38.36227035522461,5.608498573303223,-10.846725463867188,-0.16713014245033264,-0.08544816076755524,0.13262814283370972,-1.7116754055023193,0.3494535982608795,-1.6192866563796997
0,0.0,0.0,0,-38.3626594543457,5.60880708694458,-10.845230102539062,-0.16645881533622742,-0.06568658351898193,0.12352859973907471,-0.7499000430107117,0.9191880226135254,-0.8817040920257568
0,0.0,0.0,0,-38.362892150878906,5.609193325042725,-10.843841552734375,-0.1580561399459839,-0.061124056577682495,0.16668997704982758,-0.7341448664665222,1.0188759565353394,4.256412982940674
0,0.0,0.0,0,-38.36316680908203,5.609632968902588,-10.8424072265625,-0.10867833346128464,-0.05857963487505913,0.18618853390216827,0.08004922419786453,-0.8721053004264832,1.965706467628479
0,0.0,0.0,0,-38.363521575927734,5.610182762145996,-10.841033935546875,-0.10739906877279282,-0.04275672882795334,0.16815924644470215,0.7961488366127014,-2.2110140323638916,-1.591981053352356
0,0.0,0.0,0,-38.36417770385742,5.610484600067139,-10.839599609375,-0.17910721898078918,-0.04494233429431915,0.1085374653339386,1.565840244293213,-0.26790621876716614,-5.939782619476318
0,0.0,0.0,0,-38.36454772949219,5.61081600189209,-10.83819580078125,-0.2399899810552597,-0.06013558432459831,0.10714991390705109,-0.5129486322402954,2.384460926055908,-0.3670312464237213
0,0.0,0.0,0,-38.36491394042969,5.611055374145508,-10.83685302734375,-0.2260337769985199,-0.08863411843776703,0.11952052265405655,1.1658016443252563,1.4392586946487427,0.9360696077346802
0,0.0,0.0,0,-38.364933013916016,5.611496925354004,-10.83551025390625,-0.17856302857398987,-0.12248300015926361,0.1395031213760376,-0.5339582562446594,-0.7556389570236206,1.779126763343811
0,0.0,0.0,0,-38.36507797241211,5.612040042877197,-10.834274291992188,-0.14221209287643433,-0.0973358005285263,0.128733292222023,1.0780079364776611,0.8678663372993469,-1.0105700492858887
0,0.0,0.0,0,-38.3653450012207,5.612510681152344,-10.832962036132812,-0.1331934928894043,-0.1273738294839859,0.11306896805763245,-0.45807918906211853,-1.5853908061981201,-1.696877360343933
0,0.0,0.0,0,-38.36553955078125,5.613034725189209,-10.831695556640625,-0.15069162845611572,-0.07875699549913406,0.10953158140182495,-0.9046968817710876,1.8219027519226074,-0.16212648153305054
0,0.0,0.0,0,-38.365753173828125,5.613468647003174,-10.830352783203125,-0.1579698622226715,-0.09125200659036636,0.13937045633792877,-1.8019351959228516,0.7602602243423462,2.8057961463928223
0,0.0,0.0,0,-38.36582946777344,5.6143035888671875,-10.8291015625,-0.1372891515493393,-0.027579553425312042,0.16494284570217133,-1.9015225172042847,0.3587515354156494,2.870314359664917
0,0.0,0.0,0,-38.36566925048828,5.615166187286377,-10.827835083007812,-0.08989918231964111,-0.018660109490156174,0.16422058641910553,-0.19760094583034515,-0.576849639415741,-0.11086836457252502
0,0.0,0.0,0,-38.36557388305664,5.616194725036621,-10.82659912109375,-0.07593286037445068,0.01370895653963089,0.14969053864479065,0.4130842983722687,-1.550833821296692,-1.1999825239181519
0,0.0,0.0,0,-38.365745544433594,5.617063045501709,-10.825439453125,-0.1269892156124115,0.04172468185424805,0.11450375616550446,1.7765603065490723,1.069504976272583,-3.289058208465576
0,0.0,0.0,0,-38.365806579589844,5.617944240570068,-10.824264526367188,-0.16792920231819153,0.02476535364985466,0.0930854082107544,1.0509576797485352,1.7147140502929688,-2.275237798690796
0,0.0,0.0,0,-38.36586380004883,5.618803977966309,-10.8232421875,-0.19117099046707153,-0.00888083130121231,0.09055055677890778,-0.7081960439682007,1.1586159467697144,-0.5268996357917786
0,0.0,0.0,0,-38.36595153808594,5.619871616363525,-10.822219848632812,-0.15135757625102997,-0.026338912546634674,0.09793160855770111,1.0123897790908813,-0.32890576124191284,0.5653083920478821
0,0.0,0.0,0,-38.36609649658203,5.621032238006592,-10.821395874023438,-0.11946182698011398,-0.018148154020309448,0.08617821335792542,0.6146878004074097,-1.2652151584625244,-1.1234430074691772
0,0.0,0.0,0,-38.36650085449219,5.6222710609436035,-10.820541381835938,-0.12461476027965546,-0.017735086381435394,0.05410255119204521,-0.12480746954679489,-2.193265438079834,-3.1051268577575684
0,0.0,0.0,0,-38.366886138916016,5.623525619506836,-10.819839477539062,-0.146866574883461,0.05013385787606239,0.021554308012127876,-0.5197925567626953,1.3122650384902954,-2.9722421169281006
0,0.0,0.0,0,-38.36732482910156,5.624688625335693,-10.819137573242188,-0.1607402265071869,0.06190422177314758,0.017384693026542664,-0.7506211996078491,2.0347940921783447,-0.5006941556930542
0,0.0,0.0,0,-38.36752700805664,5.625832557678223,-10.818603515625,-0.1335563063621521,0.06817201524972916,0.054289810359478,-0.9289998412132263,2.949763774871826,3.4875690937042236
0,0.0,0.0,0,-38.36776351928711,5.6270575523376465,-10.818161010742188,-0.09570635110139847,0.040105801075696945,0.06421086192131042,-0.07052285969257355,-1.4023497104644775,0.8447883725166321
0,0.0,0.0,0,-38.36811828613281,5.6285247802734375,-10.817855834960938,-0.10517242550849915,0.041587430983781815,0.03914904221892357,1.0533819198608398,-3.4371497631073,-2.340904712677002
0,0.0,0.0,0,-38.36866760253906,5.629837989807129,-10.817626953125,-0.15576152503490448,0.06216122582554817,-0.022892968729138374,0.4748247563838959,-0.30198320746421814,-6.109536647796631
0,0.0,0.0,0,-38.36903381347656,5.631213188171387,-10.8175048828125,-0.18433469533920288,0.041381265968084335,-0.018586667254567146,-0.8236472010612488,1.0709084272384644,0.24751847982406616
0,0.0,0.0,0,-38.36902618408203,5.632682800292969,-10.817581176757812,-0.1107674241065979,0.08229165524244308,0.0028581705410033464,-0.954085648059845,2.390719413757324,2.148127794265747
0,0.0,0.0,0,-38.36907958984375,5.6342854499816895,-10.817779541015625,-0.04572049900889397,0.10214068740606308,0.004099959507584572,-2.5301637649536133,-2.112232208251953,0.2005411833524704
0,0.0,0.0,0,-38.3692512512207,5.636051654815674,-10.818191528320312,0.024495035409927368,0.21789978444576263,-0.03272511810064316,2.724957227706909,0.8898815512657166,-3.3597640991210938
0,0.0,0.0,0,-38.369632720947266,5.637290954589844,-10.81866455078125,-0.01299695298075676,0.2338900864124298,-0.06124130263924599,1.9805967807769775,3.4878666400909424,-2.8987843990325928
0,0.0,0.0,0,-38.36990737915039,5.6385498046875,-10.819290161132812,-0.01660863868892193,0.14854207634925842,-0.04415193572640419,1.9796326160430908,-0.37005865573883057,1.379246473312378
0,0.0,0.0,0,-38.3694953918457,5.6396894454956055,-10.820343017578125,0.004070565104484558,0.10152367502450943,-0.07804186642169952,-0.7228695154190063,-3.0234146118164062,-3.4870643615722656
0,0.0,0.0,0,-38.36924362182617,5.64080810546875,-10.821502685546875,0.020974405109882355,0.09012871235609055,-0.12200909107923508,0.5898581147193909,-2.3877978324890137,-4.3673906326293945
0,0.0,0.0,0,-38.3690071105957,5.641829490661621,-10.822906494140625,-0.01612687110900879,0.11708904802799225,-0.15543676912784576,-0.942509651184082,2.9996817111968994,-3.3549673557281494
0,0.0,0.0,0,-38.36866760253906,5.642833232879639,-10.824493408203125,-0.01783183589577675,0.09482260793447495,-0.13905104994773865,-1.5354785919189453,-1.7495241165161133,1.5962011814117432
0,0.0,0.0,0,-38.36838150024414,5.643908500671387,-10.826248168945312,-0.02038005366921425,0.18378424644470215,-0.18080340325832367,0.6962844133377075,0.030077220872044563,-3.788374662399292
0,0.0,0.0,0,-38.368221282958984,5.644501209259033,-10.828018188476562,-0.05547911301255226,0.15572839975357056,-0.1769798994064331,0.9446247220039368,1.7763688564300537,0.20107029378414154
0,0.0,0.0,0,-38.36772918701172,5.645330429077148,-10.829864501953125,-0.017032917588949203,0.1265583336353302,-0.15098842978477478,0.8849694728851318,0.5742537975311279,2.4043681621551514
0,0.0,0.0,0,-38.367271423339844,5.646177291870117,-10.832183837890625,0.01684144139289856,0.13832829892635345,-0.11717652529478073,-1.7656077146530151,-0.9988889694213867,3.463228702545166
0,0.0,0.0,0,-38.366981506347656,5.647126197814941,-10.83441162109375,0.036414556205272675,0.19444748759269714,-0.171761155128479,-0.9569148421287537,0.02246089279651642,-5.162527561187744
0,0.0,0.0,0,-38.36661148071289,5.6479339599609375,-10.8367919921875,0.05919927358627319,0.25432145595550537,-0.139396071434021,-1.827828288078308,3.018207311630249,3.3740885257720947
0,0.0,0.0,0,-38.36630630493164,5.6488118171691895,-10.839248657226562,0.13507086038589478,0.2888803482055664,-0.16311657428741455,1.5178309679031372,0.8492463231086731,-2.2558741569519043
0,0.0,0.0,0,-38.36602020263672,5.649730682373047,-10.841781616210938,0.11753110587596893,0.29385870695114136,-0.16159649193286896,-0.10550692677497864,-0.8952455520629883,0.2856053411960602
0,0.0,0.0,0,-38.366031646728516,5.6504106521606445,-10.844268798828125,0.06416112929582596,0.2568289041519165,-0.20178845524787903,1.492326021194458,0.30847421288490295,-4.138670921325684
0,0.0,0.0,0,-38.366004943847656,5.651269435882568,-10.84698486328125,-0.006981931626796722,0.17047128081321716,-0.18718372285366058,0.6901914477348328,-3.6753649711608887,1.189741849899292
0,0.0,0.0,0,-38.36570358276367,5.651978015899658,-10.849746704101562,-0.07542602717876434,0.18323786556720734,-0.22675469517707825,-2.127842426300049,1.6640185117721558,-3.9416868686676025
0,0.0,0.0,0,-38.365482330322266,5.65264892578125,-10.8525390625,-0.07207511365413666,0.15480954945087433,-0.22290709614753723,0.8173658847808838,2.7616312503814697,-0.05434013903141022
0,0.0,0.0,0,-38.364990234375,5.653090953826904,-10.855422973632812,-0.02085098996758461,0.12380388379096985,-0.16603723168373108,-0.17495162785053253,3.299793243408203,5.091698169708252
0,0.0,0.0,0,-38.36485290527344,5.653842926025391,-10.858367919921875,0.0023779645562171936,0.0673486515879631,-0.19536936283111572,-0.03298218920826912,-2.879768133163452,-3.2174341678619385
0,0.0,0.0,0,-38.36475372314453,5.6548285484313965,-10.861648559570312,-0.015062343329191208,0.13256673514842987,-0.2716524302959442,0.7253939509391785,0.17234595119953156,-7.034073352813721
0,0.0,0.0,0,-38.364524841308594,5.655577182769775,-10.8648681640625,-0.08803987503051758,0.09784462302923203,-0.27986228466033936,-1.393696904182434,1.281994104385376,-1.2650498151779175
0,0.0,0.0,0,-38.36402893066406,5.657324314117432,-10.868423461914062,-0.10031205415725708,0.11191911995410919,-0.25126969814300537,1.3423572778701782,0.9961918592453003,2.891854763031006
0,0.0,0.0,0,-38.363651275634766,5.659030914306641,-10.871978759765625,-0.14897581934928894,0.08809879422187805,-0.2966688573360443,0.9919373393058777,-2.4528980255126953,-4.556419372558594
0,0.0,0.0,0,-38.36311721801758,5.660873889923096,-10.875534057617188,-0.20064899325370789,0.09290489554405212,-0.28345295786857605,-0.012623850256204605,0.9615914821624756,1.2510682344436646
0,0.0,0.0,0,-38.36271286010742,5.662672519683838,-10.879135131835938,-0.20670902729034424,0.08854671567678452,-0.3007611632347107,-0.4286452829837799,0.508786678314209,-1.843787670135498
0,0.0,0.0,0,-38.36243438720703,5.66475772857666,-10.882965087890625,-0.22124779224395752,0.06614608317613602,-0.32422804832458496,0.3161080479621887,-1.6523120403289795,-2.421264410018921
0,0.0,0.0,0,-38.36214828491211,5.666607856750488,-10.886810302734375,-0.2268899530172348,0.07650794833898544,-0.3342476487159729,1.4898394346237183,2.411053419113159,-1.1674602031707764
0,0.0,0.0,0,-38.36165237426758,5.6686224937438965,-10.890670776367188,-0.18975190818309784,0.03131785988807678,-0.2935292720794678,0.6245551109313965,-0.24949386715888977,3.639338493347168
0,0.0,0.0,0,-38.36106491088867,5.6708221435546875,-10.894638061523438,-0.1335461139678955,0.07311740517616272,-0.3187706172466278,-0.47478193044662476,-1.8805993795394897,-1.8354138135910034
0,0.0,0.0,0,-38.360687255859375,5.672936916351318,-10.898422241210938,-0.12443670630455017,0.0985582023859024,-0.3581806421279907,-0.31025198101997375,1.4361463785171509,-3.8245532512664795
0,0.0,0.0,0,-38.36008834838867,5.674914360046387,-10.902328491210938,-0.09271108359098434,0.06706421077251434,-0.3118489384651184,-0.3558920919895172,2.438506603240967,4.046283721923828
0,0.0,0.0,0,-38.35963439941406,5.677313804626465,-10.906295776367188,-0.0642123743891716,0.05779416114091873,-0.32218262553215027,-1.0787585973739624,-3.1950836181640625,-0.7940291166305542
0,0.0,0.0,0,-38.359249114990234,5.6798858642578125,-10.91021728515625,-0.06799754500389099,0.14860790967941284,-0.3260204493999481,0.06203792244195938,0.4812763035297394,0.5050016641616821
0,0.0,0.0,0,-38.35883712768555,5.6821208000183105,-10.914031982421875,-0.08951835334300995,0.1758486032485962,-0.3249080777168274,-0.13948586583137512,1.9924184083938599,0.2043735682964325
0,0.0,0.0,0,-38.358463287353516,5.684453964233398,-10.917861938476562,-0.10616990178823471,0.163303941488266,-0.3258828818798065,0.5511751770973206,-0.46665748953819275,-0.15094543993473053
0,0.0,0.0,0,-38.35816192626953,5.6867170333862305,-10.921707153320312,-0.13780638575553894,0.14323070645332336,-0.34432706236839294,1.5176563262939453,0.41663220524787903,-2.032651662826538
0,0.0,0.0,0,-38.357940673828125,5.689122200012207,-10.925506591796875,-0.21605141460895538,0.10686104744672775,-0.3104254901409149,0.425625205039978,-0.9397013187408447,3.2172374725341797
0,0.0,0.0,0,-38.357486724853516,5.6915411949157715,-10.929336547851562,-0.19601202011108398,0.15411323308944702,-0.3548767566680908,0.8090748190879822,2.325002431869507,-4.188955307006836
0,0.0,0.0,0,-38.35715866088867,5.693580150604248,-10.932937622070312,-0.2188074290752411,0.05435393750667572,-0.3228619694709778,0.6392652988433838,-0.2369876354932785,2.3202614784240723
0,0.0,0.0,0,-38.356632232666016,5.695833206176758,-10.936660766601562,-0.2153654396533966,0.013444885611534119,-0.3253161311149597,-1.8337842226028442,-2.157410144805908,-0.41593238711357117
0,0.0,0.0,0,-38.3563232421875,5.698145866394043,-10.94024658203125,-0.19978928565979004,0.001973390579223633,-0.33343395590782166,2.0643131732940674,-0.1219264343380928,-0.8831723928451538
0,0.0,0.0,0,-38.35551071166992,5.700345516204834,-10.944198608398438,-0.16124559938907623,0.01574590802192688,-0.30520907044410706,-2.0212953090667725,2.7669239044189453,2.658205509185791
0,0.0,0.0,0,-38.35487365722656,5.702553749084473,-10.948074340820312,-0.0807325690984726,0.014002427458763123,-0.2758375406265259,0.2190849334001541,-0.9785504341125488,2.8836381435394287
0,0.0,0.0,0,-38.35373306274414,5.705517292022705,-10.951904296875,-0.03266438841819763,0.05041921138763428,-0.3017909824848175,0.17240771651268005,-0.5392165780067444,-2.288208246231079
0,0.0,0.0,0,-38.352569580078125,5.708198547363281,-10.95556640625,-0.04736532270908356,-0.01810888946056366,-0.29935234785079956,-2.763571262359619,-3.261441230773926,-0.15455539524555206
0,0.0,0.0,0,-38.351417541503906,5.711209297180176,-10.959320068359375,-0.03519969433546066,0.052773162722587585,-0.29921406507492065,-0.3114791214466095,-0.2435368001461029,0.6880712509155273
0,0.0,0.0,0,-38.350311279296875,5.714003086090088,-10.963287353515625,-0.023128682747483253,0.07228966802358627,-0.2900683879852295,0.12106411904096603,-0.15788088738918304,1.0774965286254883
0,0.0,0.0,0,-38.34938430786133,5.716996669769287,-10.967254638671875,-0.05443115532398224,0.12213926017284393,-0.2613427937030792,0.04938233271241188,-1.4495465755462646,3.574596405029297
0,0.0,0.0,0,-38.34840774536133,5.719845294952393,-10.971099853515625,-0.03990759700536728,0.1593945473432541,-0.311489462852478,1.0317840576171875,0.21549561619758606,-4.704326629638672
0,0.0,0.0,0,-38.34759521484375,5.722689151763916,-10.97491455078125,-0.07405056804418564,0.16367468237876892,-0.29840874671936035,1.728614091873169,-0.5413815379142761,1.5377774238586426
0,0.0,0.0,0,-38.34683609008789,5.72550630569458,-10.978668212890625,-0.12007009238004684,0.17788508534431458,-0.30190005898475647,-0.6737767457962036,-0.22135494649410248,-0.09815145283937454
0,0.0,0.0,0,-38.34602737426758,5.728440284729004,-10.9825439453125,-0.08991652727127075,0.2363259196281433,-0.29134511947631836,1.9021177291870117,2.315682888031006,1.3469398021697998
0,0.0,0.0,0,-38.34547424316406,5.730930805206299,-10.986251831054688,-0.06514829397201538,0.2231719046831131,-0.3100499212741852,2.311382293701172,2.16534423828125,-2.200202465057373
0,0.0,0.0,0,-38.345130920410156,5.733572959899902,-10.989944458007812,-0.14743047952651978,0.12744951248168945,-0.2594703733921051,-2.665806531906128,-2.1329519748687744,4.44322395324707
0,0.0,0.0,0,-38.34450149536133,5.736264228820801,-10.993515014648438,-0.1049719899892807,0.17351262271404266,-0.3123776614665985,0.8907216787338257,0.8072403073310852,-5.006468296051025
0,0.0,0.0,0,-38.344085693359375,5.738750457763672,-10.996963500976562,-0.13683030009269714,0.15088218450546265,-0.25669562816619873,0.7761232852935791,2.0208041667938232,5.193790912628174
0,0.0,0.0,0,-38.343379974365234,5.74124002456665,-11.000442504882812,-0.08427693694829941,0.14662624895572662,-0.24035422503948212,-1.7627613544464111,-0.3563334345817566,1.4728676080703735
0,0.0,0.0,0,-38.34295654296875,5.743646621704102,-11.004104614257812,-0.07464079558849335,0.12365195155143738,-0.25405970215797424,-0.4718734622001648,-1.24993097782135,-1.532549500465393
0,0.0,0.0,0,-38.342437744140625,5.745838165283203,-11.007659912109375,-0.00875578448176384,0.09277429431676865,-0.24441495537757874,1.7418699264526367,1.7850489616394043,0.31505024433135986
0,0.0,0.0,0,-38.34194564819336,5.748341083526611,-11.011215209960938,-0.02790498547255993,0.04816516488790512,-0.21513648331165314,-1.6382262706756592,-3.9724433422088623,2.8502697944641113
0,0.0,0.0,0,-38.34160232543945,5.750739574432373,-11.01470947265625,-0.03259497880935669,0.11822794377803802,-0.2485695481300354,-0.14117169380187988,0.792096734046936,-2.7000694274902344
0,0.0,0.0,0,-38.3409309387207,5.7529377937316895,-11.017990112304688,-0.005713079124689102,0.08703251928091049,-0.19989512860774994,-2.3304011821746826,1.140864610671997,4.285421848297119
0,0.0,0.0,0,-38.34044647216797,5.7550578117370605,-11.021499633789062,0.0662151575088501,0.11713030934333801,-0.19975009560585022,1.9567681550979614,0.05769840627908707,0.2535353899002075
0,0.0,0.0,0,-38.34028625488281,5.757049560546875,-11.02484130859375,0.01477418839931488,0.047030866146087646,-0.23544597625732422,0.07931727916002274,-3.6421854496002197,-3.909850597381592
0,0.0,0.0,0,-38.33998107910156,5.759237766265869,-11.028152465820312,-0.0742364302277565,0.07399295270442963,-0.2255622148513794,-2.7080068588256836,-0.6775051355361938,1.4099104404449463
0,0.0,0.0,0,-38.33959197998047,5.761506080627441,-11.031463623046875,-0.058987028896808624,0.12198192626237869,-0.2170327752828598,-1.0241303443908691,-0.3444487154483795,1.4154542684555054
0,0.0,0.0,0,-38.33918380737305,5.76358699798584,-11.034713745117188,0.005908079445362091,0.19424830377101898,-0.19962625205516815,3.0421090126037598,3.4671497344970703,2.1437976360321045
0,0.0,0.0,0,-38.339080810546875,5.765342712402344,-11.037918090820312,-0.021771548315882683,0.09696467220783234,-0.2139950692653656,0.6491238474845886,-2.4608941078186035,-2.2914223670959473
0,0.0,0.0,0,-38.33889389038086,5.767762184143066,-11.041427612304688,-0.10247930139303207,0.09544621407985687,-0.2309267520904541,-3.0771570205688477,-3.5419557094573975,-1.3088306188583374
0,0.0,0.0,0,-38.33849334716797,5.769937992095947,-11.044815063476562,-0.0876300036907196,0.18834081292152405,-0.25416305661201477,1.0224279165267944,6.049393177032471,-1.9613137245178223
0,0.0,0.0,0,-38.33830642700195,5.771768569946289,-11.048110961914062,-0.09227541834115982,0.11241896450519562,-0.15781483054161072,1.6897451877593994,0.8492613434791565,8.608222961425781
0,0.0,0.0,0,-38.337982177734375,5.774019241333008,-11.051544189453125,-0.06898368149995804,0.1028699055314064,-0.19538085162639618,-0.3810535967350006,-4.126054286956787,-3.380131721496582
0,0.0,0.0,0,-38.33784103393555,5.776298999786377,-11.05474853515625,-0.1402253806591034,0.1331622451543808,-0.23628059029579163,-1.0331238508224487,-0.7642464637756348,-3.723060131072998
0,0.0,0.0,0,-38.33740997314453,5.778269290924072,-11.058181762695312,-0.13965368270874023,0.1352296769618988,-0.2069457471370697,0.37483713030815125,3.507402181625366,2.532536268234253
0,0.0,0.0,0,-38.336830139160156,5.780466079711914,-11.061553955078125,-0.0994877964258194,0.13476422429084778,-0.17634786665439606,0.9891027808189392,0.1769031435251236,3.045743703842163
0,0.0,0.0,0,-38.33611297607422,5.782540798187256,-11.064956665039062,-0.040049225091934204,0.15416386723518372,-0.16586266458034515,1.2175064086914062,2.0791492462158203,1.0606772899627686
0,0.0,0.0,0,-38.335487365722656,5.784646034240723,-11.068222045898438,-0.017380665987730026,0.0934317409992218,-0.14760883152484894,0.5273147225379944,-3.7900550365448,1.5586440563201904
0,0.0,0.0,0,-38.334556579589844,5.786941051483154,-11.07159423828125,0.002475617453455925,0.17773906886577606,-0.1797623485326767,-2.821147918701172,1.2731794118881226,-2.3833329677581787
0,0.0,0.0,0,-38.333736419677734,5.788814544677734,-11.074737548828125,0.07083029299974442,0.158326655626297,-0.16266758739948273,-0.19420523941516876,2.134572982788086,1.2397408485412598
0,0.0,0.0,0,-38.332740783691406,5.7909417152404785,-11.078109741210938,0.1545649766921997,0.15874262154102325,-0.11986487358808517,-0.06079772487282753,-1.9059292078018188,4.450327396392822
0,0.0,0.0,0,-38.33205032348633,5.792979717254639,-11.081253051757812,0.16948483884334564,0.16259193420410156,-0.15497933328151703,-2.9771411418914795,-3.744194269180298,-3.0918798446655273
0,0.0,0.0,0,-38.33057403564453,5.794979572296143,-11.084793090820312,0.23304961621761322,0.23037251830101013,-0.14686095714569092,0.25595203042030334,0.2578418254852295,1.4494068622589111
0,0.0,0.0,0,-38.32929229736328,5.796868801116943,-11.088302612304688,0.2735709249973297,0.23098692297935486,-0.1855151206254959,1.7728753089904785,-2.5062084197998047,-3.588259220123291
0,0.0,0.0,0,-38.32816696166992,5.798679351806641,-11.091903686523438,0.2232217788696289,0.2686631977558136,-0.21816706657409668,-0.5282171368598938,-0.23892048001289368,-2.7660157680511475
0,0.0,0.0,0,-38.32705307006836,5.800418853759766,-11.095550537109375,0.19240830838680267,0.24216462671756744,-0.20481714606285095,-0.1194298267364502,-0.5226250886917114,1.1687161922454834
0,0.0,0.0,0,-38.32609558105469,5.8023681640625,-11.099395751953125,0.16053903102874756,0.28388363122940063,-0.21065425872802734,0.9075331687927246,-0.8755192160606384,0.008871406316757202
0,0.0,0.0,0,-38.32520294189453,5.8040289878845215,-11.103012084960938,0.12196007370948792,0.3485782742500305,-0.23982326686382294,1.7721877098083496,3.809814214706421,-2.5422120094299316
0,0.0,0.0,0,-38.32421875,5.8055524826049805,-11.106597900390625,0.06302084028720856,0.2823367118835449,-0.20659239590168,-1.8310786485671997,0.028729675337672234,2.6281611919403076
0,0.0,0.0,0,-38.32352066040039,5.806970119476318,-11.110214233398438,0.08076857775449753,0.23057256639003754,-0.1980990320444107,0.9661441445350647,-0.22502370178699493,0.3342992663383484
0,0.0,0.0,0,-38.322879791259766,5.8083906173706055,-11.113998413085938,0.012592468410730362,0.1972312331199646,-0.2390558421611786,-2.8442025184631348,-1.722297191619873,-4.271380424499512
0,0.0,0.0,0,-38.32219314575195,5.809570789337158,-11.117599487304688,-0.004373436793684959,0.12168888747692108,-0.21102853119373322,-2.152836561203003,1.6129719018936157,1.7050045728683472
0,0.0,0.0,0,-38.3214225769043,5.811074733734131,-11.121368408203125,0.05202168971300125,0.059724368155002594,-0.1773267388343811,-1.4008983373641968,-6.088620662689209,3.466789484024048
0,0.0,0.0,0,-38.32096481323242,5.8124189376831055,-11.124969482421875,0.03074706345796585,0.11472257226705551,-0.24019646644592285,0.681130588054657,-1.995760202407837,-5.333014488220215
0,0.0,0.0,0,-38.32053756713867,5.813675403594971,-11.12847900390625,0.01514629926532507,0.1362554132938385,-0.24612672626972198,2.3801229000091553,0.2673529088497162,-0.3914192318916321
0,0.0,0.0,0,-38.32023239135742,5.814795017242432,-11.132095336914062,-0.0192643404006958,0.15121959149837494,-0.25627854466438293,2.5864343643188477,2.019521713256836,-1.2092393636703491
0,0.0,0.0,0,-38.31999588012695,5.8158464431762695,-11.135528564453125,-0.10797280073165894,0.14171761274337769,-0.2748841941356659,1.2785444259643555,1.9544806480407715,-2.5797007083892822
0,0.0,0.0,0,-38.3195686340332,5.816677093505859,-11.138931274414062,-0.18918780982494354,0.030898958444595337,-0.23816350102424622,-3.093207359313965,-0.42276549339294434,1.9801908731460571
0,0.0,0.0,0,-38.31911087036133,5.817796230316162,-11.142242431640625,-0.1999017745256424,0.017228156328201294,-0.21984335780143738,0.16704685986042023,-0.5900909900665283,1.6259067058563232
0,0.0,0.0,0,-38.31858444213867,5.818825721740723,-11.145553588867188,-0.19732949137687683,0.029926389455795288,-0.2387436032295227,-1.3696584701538086,0.9779222011566162,-1.8171443939208984
0,0.0,0.0,0,-38.318180084228516,5.8197150230407715,-11.14862060546875,-0.21702885627746582,-0.05961456149816513,-0.20000819861888885,-0.7902033925056458,-0.6686976552009583,2.5553972721099854
0,0.0,0.0,0,-38.31742477416992,5.82095193862915,-11.15185546875,-0.15849564969539642,-0.0347907692193985,-0.19197437167167664,-2.2046163082122803,-1.5448048114776611,1.7731003761291504
0,0.0,0.0,0,-38.31654739379883,5.822585582733154,-11.155059814453125,-0.11570078134536743,0.03247992694377899,-0.1760072410106659,-1.0489445924758911,1.5084635019302368,2.581462860107422
0,0.0,0.0,0,-38.31547164916992,5.8241496086120605,-11.15838623046875,-0.007146446034312248,0.09916668385267258,-0.15500785410404205,3.3753957748413086,2.1031394004821777,3.0484819412231445
0,0.0,0.0,0,-38.314613342285156,5.825610160827637,-11.161514282226562,0.022222351282835007,0.0875011458992958,-0.18858906626701355,1.619711995124817,-1.2532209157943726,-3.304741144180298
0,0.0,0.0,0,-38.314002990722656,5.826810836791992,-11.164535522460938,-0.03304615616798401,0.029674749821424484,-0.23506049811840057,-1.7812278270721436,-2.234445810317993,-5.28934383392334
0,0.0,0.0,0,-38.31346893310547,5.827866554260254,-11.16717529296875,-0.11429211497306824,-0.09395187348127365,-0.18614335358142853,-1.7513322830200195,-2.1969974040985107,3.1885735988616943
0,0.0,0.0,0,-38.31259536743164,5.829404830932617,-11.169921875,-0.11376148462295532,-0.05099140852689743,-0.17180217802524567,-0.8186848759651184,0.7010914087295532,2.043250799179077
0,0.0,0.0,0,-38.31174087524414,5.830680847167969,-11.172409057617188,-0.08838794380426407,-0.05890636891126633,-0.12461329996585846,-1.8024488687515259,0.5963600873947144,4.663543224334717
0,0.0,0.0,0,-38.31071090698242,5.832305908203125,-11.174957275390625,-0.00808999314904213,-0.010697931051254272,-0.11593244969844818,-1.0383374691009521,-2.4276115894317627,2.0960583686828613
0,0.0,0.0,0,-38.30991744995117,5.833926200866699,-11.177291870117188,0.020345568656921387,0.06046247482299805,-0.12329386919736862,-0.6248359680175781,-1.9824391603469849,0.5280134081840515
0,0.0,0.0,0,-38.30917739868164,5.835598945617676,-11.179641723632812,0.04697379842400551,0.16713102161884308,-0.1617705076932907,2.1683614253997803,0.760398805141449,-2.6115126609802246
0,0.0,0.0,0,-38.30857467651367,5.837095260620117,-11.181777954101562,0.034445952624082565,0.21364140510559082,-0.17480668425559998,1.2227063179016113,0.655174970626831,-0.8967973589897156
0,0.0,0.0,0,-38.307899475097656,5.838442325592041,-11.18389892578125,0.030418111011385918,0.23620828986167908,-0.17728935182094574,1.556543231010437,3.0056135654449463,-0.4106655716896057
0,0.0,0.0,0,-38.30741500854492,5.839484214782715,-11.185806274414062,-0.0033828741870820522,0.14863666892051697,-0.17270103096961975,1.1202797889709473,0.23266872763633728,-0.6766740083694458
0,0.0,0.0,0,-38.30697250366211,5.840657711029053,-11.187728881835938,-0.054495446383953094,0.08935365080833435,-0.1366390585899353,-0.5511261820793152,-0.5727021098136902,2.9253883361816406
0,0.0,0.0,0,-38.30633544921875,5.841884136199951,-11.189605712890625,-0.07644496858119965,0.06417501717805862,-0.13531194627285004,-1.8387360572814941,-1.6703506708145142,0.0268564410507679
0,0.0,0.0,0,-38.3057746887207,5.842857360839844,-11.191238403320312,-0.09195645153522491,0.06010248512029648,-0.13567498326301575,-1.1695120334625244,1.5799922943115234,-0.2793818712234497
0,0.0,0.0,0,-38.30512619018555,5.843756675720215,-11.192779541015625,-0.06022567301988602,-0.01886555925011635,-0.11152106523513794,-1.9116052389144897,-1.8944979906082153,1.6821672916412354
0,0.0,0.0,0,-38.30461120605469,5.845043659210205,-11.194351196289062,-0.04023614525794983,-0.009505486115813255,-0.09632570296525955,0.956045925617218,-4.0677490234375,2.099891424179077
0,0.0,0.0,0,-38.30439376831055,5.8463521003723145,-11.195693969726562,-0.0860709547996521,0.08454098552465439,-0.15943656861782074,1.775178074836731,-1.2445136308670044,-5.1140313148498535
0,0.0,0.0,0,-38.30411911010742,5.84708309173584,-11.196914672851562,-0.15351934731006622,0.09335120022296906,-0.1322878748178482,1.5386242866516113,6.044094085693359,2.1231815814971924
0,0.0,0.0,0,-38.30379104614258,5.847134113311768,-11.198562622070312,-0.17963922023773193,-0.027444027364253998,-0.0640198215842247,-1.8434752225875854,-1.3513540029525757,5.600885391235352
0,0.0,0.0,0,-38.30332946777344,5.847428798675537,-11.200241088867188,-0.1494065523147583,-0.013228330761194229,-0.08470910042524338,-1.8473297357559204,-0.7848880290985107,-1.7901691198349
0,0.0,0.0,0,-38.30326843261719,5.847477436065674,-11.201629638671875,-0.19365131855010986,-0.12472527474164963,-0.09431679546833038,-2.025239944458008,-2.972349166870117,-1.9522942304611206
0,0.0,0.0,0,-38.303104400634766,5.847909450531006,-11.203109741210938,-0.19924882054328918,-0.13395468890666962,-0.06812555342912674,0.01757284626364708,-1.1744718551635742,2.647439479827881
0,0.0,0.0,0,-38.302940368652344,5.848474979400635,-11.204437255859375,-0.19932633638381958,-0.08180994540452957,-0.062084563076496124,-0.6254533529281616,-0.8604016304016113,1.3360768556594849
0,0.0,0.0,0,-38.30283737182617,5.848913192749023,-11.2056884765625,-0.1541939377784729,0.007440734654664993,-0.03572257235646248,2.2310285568237305,3.429262638092041,3.293466329574585
0,0.0,0.0,0,-38.30289840698242,5.849206447601318,-11.206924438476562,-0.12320411950349808,0.01129206083714962,0.0033653476275503635,3.0798587799072266,-0.060102663934230804,3.958240270614624
0,0.0,0.0,0,-38.302730560302734,5.849656105041504,-11.2081298828125,-0.12044224143028259,0.06966868042945862,-0.024977300316095352,-1.4628986120224,0.36741402745246887,-2.1781163215637207
0,0.0,0.0,0,-38.30276870727539,5.849767684936523,-11.209091186523438,-0.1356300413608551,0.09430444985628128,-0.03836514428257942,-0.8830792903900146,3.609872579574585,-1.4656414985656738
0,0.0,0.0,0,-38.30244827270508,5.849747657775879,-11.210052490234375,-0.07968655228614807,0.015199806541204453,0.0011619939468801022,-0.4346378743648529,0.7487859129905701,2.950767755508423
0,0.0,0.0,0,-38.30231475830078,5.850058078765869,-11.210968017578125,-0.05547283589839935,-0.04300413280725479,0.023466330021619797,-1.5768439769744873,-3.7391622066497803,1.9944393634796143
0,0.0,0.0,0,-38.302207946777344,5.850194931030273,-11.211959838867188,-0.01598021201789379,-0.039384372532367706,-0.01178835891187191,1.2104617357254028,-1.7036943435668945,-3.2802038192749023
0,0.0,0.0,0,-38.30221939086914,5.850394248962402,-11.212799072265625,-0.06112483888864517,-0.08553240448236465,-0.02124297060072422,-1.1216613054275513,-3.674633264541626,-1.0381660461425781
0,0.0,0.0,0,-38.30223083496094,5.850861072540283,-11.213714599609375,-0.057448241859674454,-0.00912182405591011,-0.023979339748620987,2.0640008449554443,-0.03439159318804741,0.6447192430496216
0,0.0,0.0,0,-38.3023567199707,5.85109806060791,-11.214492797851562,-0.11771061271429062,0.036183398216962814,-0.06577347964048386,0.7874935865402222,1.6588329076766968,-3.838913679122925
0,0.0,0.0,0,-38.30268096923828,5.851093292236328,-11.215240478515625,-0.17885252833366394,0.01748320832848549,-0.04420476779341698,1.1746540069580078,3.600287437438965,1.516538143157959
0,0.0,0.0,0,-38.30288314819336,5.851068019866943,-11.2159423828125,-0.21353332698345184,-0.04515247046947479,0.005078728776425123,-1.0441772937774658,0.016078725457191467,4.1959733963012695
0,0.0,0.0,0,-38.30278778076172,5.851379871368408,-11.21673583984375,-0.18947529792785645,-0.012891419231891632,0.019262654706835747,-2.3130948543548584,-0.32810959219932556,1.8829905986785889
0,0.0,0.0,0,-38.30291748046875,5.8514723777771,-11.217300415039062,-0.1714962124824524,-0.018766719847917557,0.004826475866138935,-1.730154037475586,1.0822477340698242,-1.635563611984253
0,0.0,0.0,0,-38.302791595458984,5.851457595825195,-11.2178955078125,-0.11033668369054794,-0.059675734490156174,0.044391825795173645,-1.43179190158844,0.46885237097740173,3.416813611984253
0,0.0,0.0,0,-38.30282211303711,5.851747989654541,-11.218399047851562,-0.04060497134923935,-0.0857197493314743,0.06600451469421387,-0.8643251061439514,-4.619325160980225,2.3541488647460938
0,0.0,0.0,0,-38.302467346191406,5.852084159851074,-11.219024658203125,0.0027634501457214355,-0.02970178984105587,0.031199973076581955,1.0186824798583984,-2.3289918899536133,-2.6247763633728027
0,0.0,0.0,0,-38.302398681640625,5.852478981018066,-11.219375610351562,-0.010623428970575333,0.029974736273288727,0.009428033605217934,1.964264988899231,-2.0102756023406982,-1.28354012966156
0,0.0,0.0,0,-38.302242279052734,5.8526930809021,-11.219833374023438,-0.003491269424557686,0.1309385597705841,0.007082921452820301,3.4554643630981445,4.484610557556152,0.36349308490753174
0,0.0,0.0,0,-38.30219650268555,5.852812767028809,-11.220123291015625,-0.04130646586418152,0.1497669219970703,-0.008253134787082672,1.353287696838379,2.2196781635284424,-1.5280702114105225
0,0.0,0.0,0,-38.30204772949219,5.852808475494385,-11.220443725585938,-0.06275766342878342,0.11488598585128784,0.008783767931163311,0.06393063813447952,1.9460221529006958,1.159307837486267
0,0.0,0.0,0,-38.30189895629883,5.85274600982666,-11.220687866210938,-0.06417707353830338,0.015461080707609653,0.014127696864306927,-1.835059404373169,-2.284412384033203,-0.28424888849258423
0,0.0,0.0,0,-38.301902770996094,5.852687358856201,-11.221176147460938,-0.0830494835972786,-0.03039686754345894,-0.0005843774415552616,-0.5481619238853455,-1.8637515306472778,-1.761090874671936
0,0.0,0.0,0,-38.30198287963867,5.852620601654053,-11.22149658203125,-0.13068753480911255,-0.10167533904314041,-0.028362877666950226,-1.807459831237793,-2.1081624031066895,-3.3100426197052
0,0.0,0.0,0,-38.30204772949219,5.852518558502197,-11.221832275390625,-0.1403685212135315,-0.10762665420770645,0.013186432421207428,0.2003653347492218,1.3733679056167603,3.936779737472534
0,0.0,0.0,0,-38.3021125793457,5.85238790512085,-11.222076416015625,-0.11336532980203629,-0.13345244526863098,0.010116428136825562,-0.041372623294591904,-3.8615102767944336,-0.18209227919578552
0,0.0,0.0,0,-38.302398681640625,5.852396011352539,-11.222381591796875,-0.14106959104537964,-0.030478117987513542,-0.012397542595863342,1.5416622161865234,0.9017247557640076,-1.2324318885803223
0,0.0,0.0,0,-38.30280303955078,5.852112293243408,-11.222442626953125,-0.2062564492225647,-0.015021447092294693,0.0010845586657524109,0.7154703140258789,2.8072407245635986,1.1909469366073608
0,0.0,0.0,0,-38.30286407470703,5.851827621459961,-11.22259521484375,-0.20498065650463104,0.0034734737128019333,0.04030829668045044,-1.6672258377075195,2.380084991455078,3.8698089122772217
0,0.0,0.0,0,-38.303096771240234,5.8513665199279785,-11.222610473632812,-0.17909649014472961,-0.047602321952581406,0.028806250542402267,-0.1867704689502716,0.2316095530986786,-1.7655808925628662
0,0.0,0.0,0,-38.30296325683594,5.851024150848389,-11.222671508789062,-0.1312737911939621,-0.09613191336393356,0.06479456275701523,-2.6492481231689453,-0.6697512865066528,3.1056299209594727
0,0.0,0.0,0,-38.30307388305664,5.850637435913086,-11.22259521484375,-0.10907351970672607,-0.17959468066692352,0.08284174650907516,-0.9270136952400208,-4.2363996505737305,1.2872086763381958
0,0.0,0.0,0,-38.30295181274414,5.850680351257324,-11.222579956054688,-0.08502413332462311,-0.1072060614824295,0.09068102389574051,-2.0101113319396973,-1.5366328954696655,1.7909884452819824
0,0.0,0.0,0,-38.30289840698242,5.8505988121032715,-11.22235107421875,-0.03371301293373108,-0.004590095952153206,0.0819910392165184,-0.46483129262924194,0.8565481901168823,0.14324672520160675
0,0.0,0.0,0,-38.302711486816406,5.850435733795166,-11.22216796875,0.06420810520648956,0.06920959800481796,0.11386555433273315,2.4878766536712646,2.424888849258423,3.6271884441375732
0,0.0,0.0,0,-38.30263137817383,5.850619792938232,-11.222061157226562,0.11317335814237595,0.08179652690887451,0.08558699488639832,2.900893449783325,-1.6905505657196045,-2.5446290969848633
0,0.0,0.0,0,-38.302738189697266,5.850802421569824,-11.22186279296875,0.07259923219680786,0.11365824937820435,0.04760804772377014,3.572136878967285,-0.15383921563625336,-3.3324532508850098
0,0.0,0.0,0,-38.302791595458984,5.850854873657227,-11.2215576171875,-0.04144144058227539,0.07599156349897385,0.029721442610025406,-1.7097111940383911,0.6391441822052002,-2.1670444011688232
0,0.0,0.0,0,-38.30268096923828,5.851125240325928,-11.221359252929688,-0.02573610283434391,0.11445988714694977,0.06420406699180603,0.6816130876541138,1.3252872228622437,3.6927192211151123
0,0.0,0.0,0,-38.302677154541016,5.851106643676758,-11.221084594726562,-0.025577273219823837,0.12646140158176422,0.03880065307021141,0.11659356206655502,0.49037835001945496,-2.460045576095581
0,0.0,0.0,0,-38.30290603637695,5.85111141204834,-11.220809936523438,-0.05843682587146759,0.1171184778213501,0.056066252291202545,0.6564586162567139,3.3643605709075928,1.2983722686767578
0,0.0,0.0,0,-38.30290603637695,5.8510518074035645,-11.220474243164062,-0.029815934598445892,0.028144102543592453,0.0757845938205719,-2.080216646194458,-1.575317621231079,1.1005425453186035
0,0.0,0.0,0,-38.30303955078125,5.851123809814453,-11.220199584960938,-0.023864109069108963,-0.005772299133241177,0.09059230238199234,-0.37544357776641846,-1.059328556060791,1.2021907567977905
0,0.0,0.0,0,-38.30324935913086,5.851231098175049,-11.219863891601562,-0.006241202354431152,-0.035530686378479004,0.04964885860681534,-1.225542664527893,-3.0137248039245605,-4.130233287811279
0,0.0,0.0,0,-38.30337142944336,5.851250648498535,-11.219482421875,0.005510833114385605,0.0031486917287111282,0.05733850225806236,-0.27643078565597534,1.605387806892395,0.996619462966919
0,0.0,0.0,0,-38.303714752197266,5.851304054260254,-11.2191162109375,0.01714414358139038,-0.03433503955602646,0.08371862769126892,0.3723321557044983,-3.0929644107818604,2.5585451126098633
0,0.0,0.0,0,-38.3040885925293,5.851696491241455,-11.218856811523438,-6.209872663021088e-05,0.07984477281570435,0.0661429837346077,1.3770060539245605,-1.2296125888824463,-0.3844810724258423
0,0.0,0.0,0,-38.30453109741211,5.851643085479736,-11.218399047851562,-0.044035062193870544,0.14973267912864685,0.023328052833676338,1.6708132028579712,6.695696830749512,-4.208708763122559
0,0.0,0.0,0,-38.304744720458984,5.851518630981445,-11.217926025390625,-0.08039852231740952,0.06370992958545685,0.09693823009729385,-1.5428481101989746,1.1576857566833496,6.312727928161621
0,0.0,0.0,0,-38.30496597290039,5.851481914520264,-11.217361450195312,-0.025159094482660294,0.04842246696352959,0.10802899301052094,0.5291681885719299,0.33134955167770386,0.8697428703308105
0,0.0,0.0,0,-38.305389404296875,5.85143518447876,-11.216827392578125,-0.057732321321964264,-0.03106047585606575,0.06679438799619675,-1.677578091621399,-4.079143524169922,-4.561535358428955
0,0.0,0.0,0,-38.30575942993164,5.8511857986450195,-11.216049194335938,-0.12456430494785309,-0.12659627199172974,0.043642833828926086,-2.4524025917053223,-0.6325645446777344,-3.3451125621795654
0,0.0,0.0,0,-38.306053161621094,5.851230621337891,-11.215362548828125,-0.13711830973625183,-0.16700245440006256,0.09945385158061981,-1.9164615869522095,-0.8656518459320068,5.2048187255859375
0,0.0,0.0,0,-38.30622863769531,5.85141658782959,-11.214691162109375,-0.08479650318622589,-0.13115957379341125,0.1038685292005539,0.5975971221923828,-2.0503857135772705,1.0835932493209839
0,0.0,0.0,0,-38.30653762817383,5.851770401000977,-11.214202880859375,-0.07441116124391556,-0.029138948768377304,0.10621129721403122,1.8280853033065796,0.6173991560935974,1.26590895652771
0,0.0,0.0,0,-38.30698013305664,5.851592540740967,-11.213912963867188,-0.09432537853717804,-0.006770836189389229,0.10567539930343628,1.7242447137832642,0.2893046736717224,0.12491422146558762
0,0.0,0.0,0,-38.307369232177734,5.8518595695495605,-11.21368408203125,-0.1508309543132782,0.07992242276668549,0.09057699888944626,-0.3506441116333008,0.8977751731872559,-0.7684822678565979
0,0.0,0.0,0,-38.3076286315918,5.8515424728393555,-11.213363647460938,-0.13043537735939026,0.06333675980567932,0.04449506476521492,0.580405592918396,3.6266274452209473,-5.1346940994262695
0,0.0,0.0,0,-38.307769775390625,5.851269721984863,-11.213043212890625,-0.11060208082199097,-0.021576449275016785,0.117026686668396,1.2151975631713867,1.9456123113632202,6.146803379058838
0,0.0,0.0,0,-38.30790328979492,5.851176738739014,-11.21319580078125,-0.08630217611789703,-0.053863853216171265,0.13008248805999756,-0.8672831058502197,-2.6214582920074463,1.2876933813095093
0,0.0,0.0,0,-38.3079948425293,5.851231098175049,-11.2132568359375,-0.08874454349279404,-0.04286406189203262,0.12725047767162323,-0.5949838161468506,-1.5469415187835693,0.023934245109558105
0,0.0,0.0,0,-38.3079833984375,5.851139545440674,-11.213287353515625,-0.06879866123199463,-0.015765847638249397,0.12309860438108444,-0.3781447112560272,0.29952266812324524,-0.1319800168275833
0,0.0,0.0,0,-38.30778503417969,5.851088523864746,-11.213363647460938,0.00197456032037735,0.009127830155193806,0.14067015051841736,-0.7829351425170898,-0.2189100682735443,2.058560371398926
0,0.0,0.0,0,-38.307498931884766,5.8507561683654785,-11.21337890625,0.08843013644218445,0.005339587107300758,0.095482237637043,-0.7989358305931091,-0.7399885654449463,-4.534327983856201
0,0.0,0.0,0,-38.30752182006836,5.850498676300049,-11.21331787109375,0.15576229989528656,-0.01708352006971836,0.0901014506816864,4.3359270095825195,-2.1122918128967285,-0.5700086951255798
0,0.0,0.0,0,-38.307674407958984,5.850283145904541,-11.213592529296875,0.09407054632902145,0.004295662045478821,0.06448017060756683,1.0203438997268677,-2.167757272720337,-2.0639092922210693
0,0.0,0.0,0,-38.307857513427734,5.849907398223877,-11.213821411132812,0.009446483105421066,0.036786049604415894,0.008676749654114246,-0.04940170794725418,0.9676603078842163,-5.279277324676514
0,0.0,0.0,0,-38.30767059326172,5.8495306968688965,-11.21405029296875,-0.003311658278107643,0.0719992145895958,0.012302475981414318,1.5563340187072754,4.017872333526611,0.3352843225002289
0,0.0,0.0,0,-38.307491302490234,5.849029064178467,-11.214279174804688,0.0016790159279480577,0.05305510014295578,0.05861273407936096,-1.1287238597869873,0.7115712761878967,4.364065647125244
0,0.0,0.0,0,-38.307289123535156,5.8487653732299805,-11.214599609375,0.08102569729089737,0.12185342609882355,0.0547633171081543,1.783581018447876,1.243417739868164,0.1760575920343399
0,0.0,0.0,0,-38.307342529296875,5.84832239151001,-11.214874267578125,0.03589494898915291,0.06650718301534653,0.02569526433944702,-1.867971658706665,-1.982552170753479,-3.2416317462921143
0,0.0,0.0,0,-38.30747985839844,5.84760046005249,-11.215057373046875,0.010830715298652649,0.000790497288107872,0.03268544375896454,0.30458056926727295,2.7578694820404053,-0.2990695834159851
0,0.0,0.0,0,-38.30712890625,5.8471174240112305,-11.215255737304688,0.07131657749414444,-0.08019842952489853,0.07742767781019211,-2.7729883193969727,-2.7509000301361084,3.7719876766204834
0,0.0,0.0,0,-38.307254791259766,5.846797943115234,-11.21551513671875,0.09018118679523468,-0.0474260114133358,0.054441992193460464,0.20367862284183502,-3.628835916519165,-1.4963332414627075
0,0.0,0.0,0,-38.307395935058594,5.846524238586426,-11.215606689453125,0.030989795923233032,-0.03418409451842308,0.028031323105096817,-0.06897284090518951,-2.8446481227874756,-2.0914456844329834
0,0.0,0.0,0,-38.30686950683594,5.846104621887207,-11.215850830078125,0.03240774944424629,0.08585931360721588,0.05662434175610542,-0.07915817946195602,5.222015857696533,3.6535680294036865
0,0.0,0.0,0,-38.30641555786133,5.845757961273193,-11.216049194335938,0.1032942682504654,0.10974991321563721,0.06351438164710999,3.323589324951172,0.2663212716579437,0.9382734298706055
0,0.0,0.0,0,-38.306270599365234,5.845282077789307,-11.216217041015625,0.034054145216941833,0.13485059142112732,0.051076047122478485,1.7419078350067139,1.8313714265823364,-1.0692501068115234
0,0.0,0.0,0,-38.30597686767578,5.844761371612549,-11.216232299804688,-0.027103625237941742,0.04486378654837608,0.02990388311445713,-0.8512016534805298,0.7833896279335022,-3.2319133281707764
0,0.0,0.0,0,-38.305511474609375,5.844339847564697,-11.216217041015625,-0.05905715376138687,0.0035755112767219543,0.053243134170770645,-2.088090181350708,1.2985800504684448,1.6929124593734741
0,0.0,0.0,0,-38.30501937866211,5.843781471252441,-11.216094970703125,-0.035410717129707336,-0.096150241792202,0.0797213539481163,-1.1929066181182861,-0.7621264457702637,1.5070958137512207
0,0.0,0.0,0,-38.30458450317383,5.843533515930176,-11.21612548828125,0.021693937480449677,-0.09899789094924927,0.1033177524805069,0.8649305105209351,-1.0906699895858765,2.4784693717956543
0,0.0,0.0,0,-38.30427932739258,5.843203544616699,-11.21600341796875,0.005309632048010826,-0.13078024983406067,0.09210168570280075,-1.4836210012435913,-3.1648294925689697,-1.1139848232269287
0,0.0,0.0,0,-38.30386734008789,5.843298435211182,-11.215972900390625,-0.004215527325868607,-0.053415145725011826,0.09049928188323975,-2.8418140411376953,-2.4057540893554688,1.126497507095337
0,0.0,0.0,0,-38.30350875854492,5.843123912811279,-11.215774536132812,0.04959773272275925,0.00029032304883003235,0.03768477588891983,2.696688175201416,1.7371891736984253,-4.818906784057617
0,0.0,0.0,0,-38.30341339111328,5.842792987823486,-11.215591430664062,0.014074218459427357,-0.015025665983557701,0.0547088086605072,2.7582247257232666,0.4713174104690552,1.4612832069396973
0,0.0,0.0,0,-38.30332565307617,5.84253454208374,-11.2154541015625,-0.0654793232679367,-0.053939707577228546,0.07084349542856216,-0.29068997502326965,-1.9090574979782104,1.3354767560958862
0,0.0,0.0,0,-38.3031120300293,5.842714309692383,-11.215377807617188,-0.1124565601348877,0.06969048082828522,0.0858423262834549,-2.0782175064086914,2.0077149868011475,2.7190101146698
0,0.0,0.0,0,-38.30270767211914,5.842301368713379,-11.215103149414062,-0.04558706656098366,0.0805601105093956,0.038476429879665375,1.4673188924789429,3.3773481845855713,-4.942917823791504
0,0.0,0.0,0,-38.30250549316406,5.8417792320251465,-11.214767456054688,-0.053872011601924896,-0.03366740792989731,0.10547057539224625,2.399592638015747,1.2455461025238037,5.154969215393066
0,0.0,0.0,0,-38.30242919921875,5.8413872718811035,-11.21441650390625,-0.08842629939317703,-0.11731221526861191,0.11874106526374817,-1.1650011539459229,-3.1949541568756104,0.6758625507354736
0,0.0,0.0,0,-38.30210876464844,5.841460227966309,-11.214126586914062,-0.13813044130802155,-0.06883780658245087,0.12138956785202026,-3.5540931224823,-1.2589716911315918,1.0363160371780396
0,0.0,0.0,0,-38.30173873901367,5.841137409210205,-11.21368408203125,-0.11035619676113129,-0.05366959050297737,0.0957779660820961,-1.4221713542938232,2.946294069290161,-2.685044050216675
0,0.0,0.0,0,-38.3011360168457,5.840724945068359,-11.213226318359375,-0.011744589544832706,-0.0949556827545166,0.18885400891304016,1.7185055017471313,1.7187178134918213,8.658931732177734
0,0.0,0.0,0,-38.300716400146484,5.840601444244385,-11.212783813476562,0.032274145632982254,-0.11977896094322205,0.16356563568115234,-0.6708387136459351,-5.0623393058776855,-2.183049201965332
0,0.0,0.0,0,-38.30057144165039,5.840601444244385,-11.212661743164062,0.008840871043503284,-0.09384261071681976,0.1452370584011078,1.0776712894439697,-0.29662734270095825,-1.456778883934021
0,0.0,0.0,0,-38.30025863647461,5.840421199798584,-11.212417602539062,-0.03389647975564003,-0.13132406771183014,0.12427834421396255,-1.7205405235290527,-0.6740744709968567,-2.4459633827209473
0,0.0,0.0,0,-38.299774169921875,5.840632915496826,-11.212371826171875,-0.019134655594825745,-0.0902058333158493,0.1766478419303894,0.4821166396141052,0.4199497401714325,5.729784965515137
0,0.0,0.0,0,-38.29937744140625,5.840595722198486,-11.212295532226562,0.017495565116405487,-0.038320086896419525,0.13868674635887146,1.4863848686218262,-0.35721927881240845,-3.117365837097168
0,0.0,0.0,0,-38.29896545410156,5.840693950653076,-11.212158203125,-0.017776986584067345,-0.04689817875623703,0.15166111290454865,0.5343546867370605,-1.232591986656189,1.3744970560073853
0,0.0,0.0,0,-38.29850387573242,5.840840816497803,-11.212020874023438,-0.026086444035172462,0.012027248740196228,0.13110235333442688,0.548180103302002,1.5443646907806396,-1.5292202234268188
0,0.0,0.0,0,-38.297996520996094,5.8410820960998535,-11.2117919921875,-0.03647502884268761,0.038793087005615234,0.1285180300474167,-0.2409036010503769,0.4552856981754303,0.012255800887942314
0,0.0,0.0,0,-38.297645568847656,5.840921401977539,-11.211669921875,-0.012623276561498642,0.032647471874952316,0.10749860107898712,5.717306137084961,3.9772965908050537,-2.578282356262207
0,0.0,0.0,0,-38.2973747253418,5.840702056884766,-11.211395263671875,-0.09631942212581635,-0.09594933688640594,0.14915330708026886,0.02429559826850891,-0.19823908805847168,2.730684757232666
0,0.0,0.0,0,-38.296730041503906,5.840888500213623,-11.211318969726562,-0.10019727051258087,-0.08065786212682724,0.14533647894859314,-3.542013645172119,-1.074137806892395,-0.02382352575659752
0,0.0,0.0,0,-38.296173095703125,5.841008186340332,-11.211090087890625,-0.0759803056716919,-0.06636600196361542,0.1512087732553482,0.04545073211193085,1.2556625604629517,0.6405120491981506
0,0.0,0.0,0,-38.295528411865234,5.840729236602783,-11.2108154296875,-0.024166859686374664,-0.08266633749008179,0.15988591313362122,0.9261797666549683,3.3742196559906006,0.29059329628944397
0,0.0,0.0,0,-38.294986724853516,5.840904235839844,-11.210479736328125,-0.007941201329231262,-0.15200862288475037,0.2050355225801468,-1.245848298072815,-4.786411762237549,4.286729335784912
0,0.0,0.0,0,-38.294212341308594,5.841177463531494,-11.210357666015625,0.03824475407600403,-0.08053085207939148,0.17846161127090454,-1.2613407373428345,-0.7537685036659241,-1.760709524154663
0,0.0,0.0,0,-38.293643951416016,5.841200351715088,-11.209991455078125,0.04806339740753174,-0.08606144785881042,0.1307407170534134,-1.9205302000045776,-1.7433934211730957,-4.647431373596191
0,0.0,0.0,0,-38.29301071166992,5.84105110168457,-11.209609985351562,0.08388485014438629,-0.09834443777799606,0.16837170720100403,2.130624532699585,1.6096282005310059,3.4335532188415527
0,0.0,0.0,0,-38.29258346557617,5.8411688804626465,-11.209213256835938,0.06902091950178146,-0.11690421402454376,0.20334187150001526,-0.24981540441513062,-4.628621578216553,3.858332395553589
0,0.0,0.0,0,-38.29203796386719,5.841555595397949,-11.208877563476562,0.05789310485124588,0.026494450867176056,0.1626598984003067,0.45073628425598145,2.209961414337158,-2.7072348594665527
0,0.0,0.0,0,-38.2915153503418,5.841625213623047,-11.208282470703125,0.04732828214764595,0.08856505900621414,0.1427128165960312,-0.08331485837697983,4.1909918785095215,-1.7499905824661255
0,0.0,0.0,0,-38.29092788696289,5.841484546661377,-11.207733154296875,0.08544637262821198,0.04572836309671402,0.20051616430282593,2.093689203262329,2.0383152961730957,5.102692604064941
0,0.0,0.0,0,-38.29051208496094,5.841487884521484,-11.207107543945312,0.08888574689626694,-0.020572952926158905,0.18834561109542847,1.4971604347229004,-3.367025375366211,-1.544423222541809
0,0.0,0.0,0,-38.290008544921875,5.841841697692871,-11.206619262695312,-0.01754612848162651,0.009405989199876785,0.13157489895820618,-0.7337689399719238,-3.178772211074829,-4.950046062469482
0,0.0,0.0,0,-38.28928756713867,5.841850280761719,-11.2059326171875,-0.08630185574293137,0.0336557999253273,0.10635236650705338,-1.8128573894500732,5.876484394073486,-2.878674030303955
0,0.0,0.0,0,-38.288631439208984,5.841615200042725,-11.20513916015625,-0.06146710738539696,-0.06472283601760864,0.204974964261055,2.6101930141448975,1.428727149963379,8.600464820861816
0,0.0,0.0,0,-38.28789520263672,5.841754913330078,-11.204345703125,-0.064585380256176,-0.11313226073980331,0.21307486295700073,-2.470054864883423,-3.698636531829834,0.6944007873535156
0,0.0,0.0,0,-38.28718566894531,5.84209680557251,-11.203536987304688,-0.0912134051322937,-0.04558109864592552,0.18129871785640717,-1.583246111869812,-0.39736610651016235,-2.3703904151916504
0,0.0,0.0,0,-38.28650665283203,5.841823577880859,-11.202484130859375,-0.043110594153404236,-0.08198073506355286,0.1704583764076233,0.11679157614707947,2.695859909057617,-1.777030110359192
0,0.0,0.0,0,-38.28577423095703,5.841776371002197,-11.201446533203125,-0.01885075494647026,-0.13997890055179596,0.23500895500183105,0.19210374355316162,-0.8882289528846741,5.915168285369873
0,0.0,0.0,0,-38.28530502319336,5.841954231262207,-11.200408935546875,-0.006420057266950607,-0.1580188274383545,0.19960010051727295,0.7951805591583252,-4.885157108306885,-3.1729743480682373
0,0.0,0.0,0,-38.284942626953125,5.842020034790039,-11.199371337890625,-0.0833841860294342,-0.11252519488334656,0.17175905406475067,0.2968674600124359,-0.1051686704158783,-2.3493359088897705
0,0.0,0.0,0,-38.284488677978516,5.841890335083008,-11.198257446289062,-0.143373504281044,-0.13578088581562042,0.18703655898571014,-2.1132490634918213,1.5273497104644775,1.0109089612960815
0,0.0,0.0,0,-38.283687591552734,5.84202766418457,-11.197113037109375,-0.0718175545334816,-0.10192183405160904,0.2369278520345688,0.5873716473579407,1.2281657457351685,5.35968017578125
0,0.0,0.0,0,-38.28305435180664,5.842138767242432,-11.195938110351562,-0.026611920446157455,-0.06658041477203369,0.21146753430366516,0.4842318594455719,-0.8659349083900452,-1.9859846830368042
0,0.0,0.0,0,-38.282562255859375,5.8422017097473145,-11.194610595703125,-0.010622341185808182,-0.10202991217374802,0.19551052153110504,2.4317383766174316,-1.9736896753311157,-1.7835047245025635
0,0.0,0.0,0,-38.28194808959961,5.842248916625977,-11.19342041015625,-0.034945953637361526,-0.08818483352661133,0.20042046904563904,-0.9689018726348877,-0.09816344082355499,0.642170786857605
0,0.0,0.0,0,-38.28125,5.8425798416137695,-11.192123413085938,-0.02160908281803131,-0.034406233578920364,0.18131886422634125,-1.2437934875488281,0.6417135000228882,-1.330734372138977
0,0.0,0.0,0,-38.280433654785156,5.842634677886963,-11.190780639648438,0.027553627267479897,0.005663154646754265,0.20894885063171387,0.2825648784637451,3.5258517265319824,2.9058456420898438
0,0.0,0.0,0,-38.279720306396484,5.842608451843262,-11.1893310546875,0.08391112089157104,-0.002761226147413254,0.24723511934280396,0.5847699642181396,0.5508626103401184,3.744523286819458
0,0.0,0.0,0,-38.27911376953125,5.842784881591797,-11.18804931640625,0.11067095398902893,0.020760472863912582,0.2502128779888153,1.0263224840164185,-2.814035654067993,0.8750602602958679
0,0.0,0.0,0,-38.278621673583984,5.842888832092285,-11.186721801757812,0.06213356554508209,0.06926628947257996,0.17669884860515594,-0.7395567893981934,-0.9495266079902649,-6.777843952178955
0,0.0,0.0,0,-38.27774429321289,5.843121528625488,-11.185409545898438,0.030316077172756195,0.07770155370235443,0.19223815202713013,-0.5663708448410034,3.535247564315796,1.2481296062469482
0,0.0,0.0,0,-38.27693176269531,5.842933654785156,-11.183990478515625,0.02472000941634178,0.0001869257539510727,0.21115964651107788,0.9869080781936646,0.9642274379730225,0.9479721188545227
0,0.0,0.0,0,-38.276432037353516,5.843019008636475,-11.182693481445312,-0.04881686717271805,-0.07059744000434875,0.2131900191307068,1.8848942518234253,-2.3184502124786377,-0.47265222668647766
0,0.0,0.0,0,-38.27589416503906,5.842967987060547,-11.181259155273438,-0.1771325320005417,-0.11693336069583893,0.17625755071640015,-2.4665560722351074,-0.4531519412994385,-4.388486385345459
0,0.0,0.0,0,-38.27504348754883,5.842980861663818,-11.179916381835938,-0.15943416953086853,-0.11564473807811737,0.2195558398962021,0.7438666820526123,2.600632667541504,4.063146591186523
0,0.0,0.0,0,-38.27412033081055,5.8429131507873535,-11.178817749023438,-0.08288158476352692,-0.14192286133766174,0.21549151837825775,2.3198771476745605,-1.2629125118255615,-0.4770810306072235
0,0.0,0.0,0,-38.27344512939453,5.842855453491211,-11.177597045898438,-0.14226973056793213,-0.1716957837343216,0.19138269126415253,0.11928901076316833,-0.8800632953643799,-2.8298768997192383
0,0.0,0.0,0,-38.2724723815918,5.842667579650879,-11.176406860351562,-0.09766625612974167,-0.2086477279663086,0.19507399201393127,-0.4017144441604614,0.16383714973926544,0.0030118972063064575
0,0.0,0.0,0,-38.27141571044922,5.842649936676025,-11.1751708984375,-0.07933243364095688,-0.22109778225421906,0.20458228886127472,-1.5003653764724731,-1.8548119068145752,1.0945796966552734
0,0.0,0.0,0,-38.27057647705078,5.842733860015869,-11.174026489257812,-0.061232659965753555,-0.16353756189346313,0.1671012043952942,0.2358599305152893,1.5634442567825317,-3.216371774673462
0,0.0,0.0,0,-38.269535064697266,5.842563152313232,-11.172866821289062,-0.04949658736586571,-0.21412970125675201,0.18520231544971466,-1.03252375125885,0.2024441957473755,1.2111492156982422
0,0.0,0.0,0,-38.26853561401367,5.842794895172119,-11.171875,-0.025133583694696426,-0.14254745841026306,0.22778765857219696,0.02758605405688286,1.742088794708252,5.000287055969238
0,0.0,0.0,0,-38.26750946044922,5.843034744262695,-11.170867919921875,0.028510641306638718,-0.1433972269296646,0.22059115767478943,-0.012321347370743752,-3.4180593490600586,-0.18839097023010254
0,0.0,0.0,0,-38.266693115234375,5.843326091766357,-11.169891357421875,-0.025485116988420486,-0.056146591901779175,0.16842934489250183,-1.1005804538726807,1.3193676471710205,-4.411886215209961
0,0.0,0.0,0,-38.265804290771484,5.843334674835205,-11.168777465820312,-0.042325459420681,-0.11010757833719254,0.1738482415676117,-1.5902701616287231,1.3550927639007568,-0.23180349171161652
0,0.0,0.0,0,-38.26471710205078,5.843616485595703,-11.167861938476562,0.004281101748347282,-0.10218024253845215,0.21330411732196808,1.0818367004394531,0.9580538272857666,4.037793159484863
0,0.0,0.0,0,-38.26383590698242,5.844127655029297,-11.1671142578125,0.015122628770768642,-0.10005950927734375,0.18016499280929565,-0.3754255175590515,-3.4568753242492676,-2.833578109741211
0,0.0,0.0,0,-38.263038635253906,5.844534397125244,-11.16632080078125,-0.024242594838142395,-0.061627212911844254,0.16453851759433746,1.5678951740264893,0.6029881238937378,-1.2898838520050049
0,0.0,0.0,0,-38.262142181396484,5.84469747543335,-11.165481567382812,-0.07499411702156067,-0.08316655457019806,0.16538137197494507,-2.948272705078125,0.7391619682312012,-0.24986015260219574
0,0.0,0.0,0,-38.261207580566406,5.845145225524902,-11.164749145507812,-0.009102830663323402,-0.0603284128010273,0.18220244348049164,1.4389405250549316,0.36477938294410706,2.0243165493011475
0,0.0,0.0,0,-38.259910583496094,5.845458507537842,-11.164215087890625,-0.00491294264793396,-0.09118008613586426,0.12773095071315765,1.2130703926086426,-1.8174763917922974,-5.567388534545898
0,0.0,0.0,0,-38.25877380371094,5.845856189727783,-11.164016723632812,-0.05894487351179123,-0.12659844756126404,0.1168326884508133,1.417840838432312,-1.0580201148986816,-1.4543997049331665
0,0.0,0.0,0,-38.25750732421875,5.8461527824401855,-11.163925170898438,-0.09597229957580566,-0.12997779250144958,0.11356595903635025,-0.7330272793769836,-0.4388296604156494,-0.3441345691680908
0,0.0,0.0,0,-38.256263732910156,5.846719264984131,-11.163772583007812,-0.12062236666679382,-0.08766055107116699,0.0945911556482315,-1.9159932136535645,-0.22434833645820618,-1.4291716814041138
0,0.0,0.0,0,-38.25489807128906,5.846867561340332,-11.163589477539062,-0.04327085614204407,-0.021730415523052216,0.09323456138372421,3.264420986175537,4.918822765350342,0.15723547339439392
0,0.0,0.0,0,-38.25360870361328,5.846793174743652,-11.16339111328125,-0.004530064761638641,-0.06694693118333817,0.13840745389461517,-0.27844393253326416,-0.2987331748008728,4.22021484375
0,0.0,0.0,0,-38.252403259277344,5.846983909606934,-11.16357421875,0.02482379972934723,-0.04027286171913147,0.11470824480056763,0.8803498148918152,0.06699785590171814,-2.057445526123047
0,0.0,0.0,0,-38.25148391723633,5.847133159637451,-11.163589477539062,-0.07830919325351715,-0.03185601159930229,0.06787586212158203,-3.0184221267700195,-0.7018702030181885,-4.6888580322265625
0,0.0,0.0,0,-38.25027847290039,5.847022533416748,-11.163650512695312,-0.06723804771900177,-0.06517493724822998,0.1073455661535263,0.6345398426055908,2.1843345165252686,3.443657636642456
0,0.0,0.0,0,-38.2491340637207,5.846900463104248,-11.163711547851562,-0.083274707198143,-0.13382168114185333,0.12654291093349457,-1.7011696100234985,-2.9928629398345947,1.5468952655792236
0,0.0,0.0,0,-38.24803924560547,5.847069263458252,-11.163803100585938,-0.08377203345298767,-0.13192623853683472,0.1062290221452713,0.3280627429485321,-1.467235803604126,-1.8759546279907227
0,0.0,0.0,0,-38.24692916870117,5.846880912780762,-11.163772583007812,-0.12978345155715942,-0.18285030126571655,0.09378454089164734,-1.2218174934387207,-0.08252508193254471,-1.8517202138900757
0,0.0,0.0,0,-38.24570083618164,5.847082138061523,-11.164154052734375,-0.11364628374576569,-0.15709945559501648,0.134660005569458,-0.9792782068252563,0.6884798407554626,4.3665971755981445
0,0.0,0.0,0,-38.24445343017578,5.847038269042969,-11.1644287109375,-0.030055467039346695,-0.15644967555999756,0.11315535008907318,1.7315387725830078,-0.10075695067644119,-2.005833864212036
0,0.0,0.0,0,-38.243446350097656,5.847047328948975,-11.164627075195312,-0.03384149819612503,-0.2080170214176178,0.11784446984529495,1.1563174724578857,-2.2340402603149414,0.12429869174957275
0,0.0,0.0,0,-38.24251174926758,5.847257614135742,-11.164810180664062,-0.04113432765007019,-0.15994316339492798,0.0870949774980545,0.6253378391265869,-0.5763571858406067,-2.5319974422454834
0,0.0,0.0,0,-38.241455078125,5.847536087036133,-11.1649169921875,-0.08447600901126862,-0.11436965316534042,0.0528944693505764,-3.5032975673675537,-0.3061920404434204,-2.906198740005493
0,0.0,0.0,0,-38.24042510986328,5.847476959228516,-11.165191650390625,-0.042712241411209106,-0.07217101007699966,0.08772659301757812,1.5177196264266968,3.5301220417022705,3.619727611541748
0,0.0,0.0,0,-38.23931121826172,5.847365379333496,-11.16546630859375,0.03903566673398018,-0.07205858081579208,0.1389375478029251,1.0389412641525269,0.8691754341125488,5.155767440795898
0,0.0,0.0,0,-38.238433837890625,5.847710609436035,-11.165817260742188,0.026097800582647324,-0.020581627264618874,0.10114794224500656,-1.034729242324829,-4.369545936584473,-2.759155750274658
0,0.0,0.0,0,-38.237545013427734,5.847811698913574,-11.165985107421875,0.015382926911115646,0.05709385871887207,0.047895368188619614,0.09793513268232346,2.966182231903076,-4.825911998748779
0,0.0,0.0,0,-38.23699188232422,5.847847938537598,-11.166259765625,0.0037629827857017517,0.01571701653301716,0.08710849285125732,0.32694533467292786,3.1460719108581543,3.176722288131714
0,0.0,0.0,0,-38.236610412597656,5.847837448120117,-11.16656494140625,0.004957951605319977,-0.049449339509010315,0.11893444508314133,1.7077382802963257,-0.9208988547325134,2.583960771560669
0,0.0,0.0,0,-38.23632049560547,5.848178863525391,-11.166915893554688,-0.057446639984846115,-0.031157344579696655,0.08500875532627106,0.2590329051017761,-2.448808431625366,-3.0041942596435547
0,0.0,0.0,0,-38.23596954345703,5.8483195304870605,-11.1671142578125,-0.15029726922512054,0.011029765009880066,0.0561048686504364,-4.654602527618408,3.1972153186798096,-2.82974910736084
0,0.0,0.0,0,-38.23530960083008,5.848240852355957,-11.167251586914062,-0.04553329199552536,-0.03383800759911537,0.14557461440563202,2.224053144454956,3.0729775428771973,8.289056777954102
0,0.0,0.0,0,-38.234928131103516,5.848359107971191,-11.167373657226562,-0.025748360902071,-0.08636464178562164,0.14743778109550476,0.13184495270252228,-3.9679055213928223,0.08328878879547119
0,0.0,0.0,0,-38.23463439941406,5.8485307693481445,-11.16741943359375,-0.0815262570977211,-0.10771308839321136,0.12142965197563171,-1.1336246728897095,-1.1462656259536743,-2.7702555656433105
0,0.0,0.0,0,-38.234107971191406,5.848565578460693,-11.167266845703125,-0.11074569821357727,-0.14981034398078918,0.10948978364467621,-3.758723735809326,-0.34082257747650146,-1.615114688873291
0,0.0,0.0,0,-38.23367691040039,5.84868049621582,-11.167098999023438,-0.07943373173475266,-0.13806955516338348,0.13614924252033234,-0.0632014125585556,0.95718914270401,2.749533176422119
0,0.0,0.0,0,-38.23340606689453,5.848601341247559,-11.166915893554688,-0.05915994197130203,-0.1720401793718338,0.12525109946727753,0.6291758418083191,-2.005497455596924,-1.240513801574707
0,0.0,0.0,0,-38.23308181762695,5.848929405212402,-11.166671752929688,-0.08344198763370514,-0.15546077489852905,0.151026651263237,0.16740897297859192,-0.9434840083122253,2.8619134426116943
0,0.0,0.0,0,-38.23272705078125,5.849180698394775,-11.16644287109375,-0.07089217752218246,-0.10373296588659286,0.13991662859916687,0.1855713576078415,-0.5585126280784607,-0.425955593585968
0,0.0,0.0,0,-38.2325325012207,5.8495049476623535,-11.166107177734375,-0.09912277013063431,-0.0663311704993248,0.11703510582447052,0.09447690099477768,0.8049618601799011,-1.9983175992965698
0,0.0,0.0,0,-38.23223114013672,5.849587440490723,-11.165740966796875,-0.09327328950166702,-0.07221150398254395,0.08666554093360901,0.19259534776210785,1.523798942565918,-3.264056921005249
0,0.0,0.0,0,-38.2320671081543,5.84967565536499,-11.165298461914062,-0.12241511046886444,-0.15577907860279083,0.1260756403207779,0.8428875803947449,-1.760391116142273,3.104891061782837
0,0.0,0.0,0,-38.231815338134766,5.850037574768066,-11.16497802734375,-0.1269831657409668,-0.1298331916332245,0.10960152745246887,0.24077235162258148,-0.8712131977081299,-1.2416484355926514
0,0.0,0.0,0,-38.231605529785156,5.850642204284668,-11.164535522460938,-0.17195159196853638,-0.04990575462579727,0.08586147427558899,-1.8730348348617554,0.6805917620658875,-1.5800143480300903
0,0.0,0.0,0,-38.23125076293945,5.850877285003662,-11.1640625,-0.12501166760921478,-0.00561404787003994,0.09285393357276917,1.0827134847640991,4.76617431640625,0.7533310651779175
0,0.0,0.0,0,-38.231056213378906,5.850919246673584,-11.163650512695312,-0.04597676545381546,-0.04755117744207382,0.15181785821914673,2.401878833770752,0.529191255569458,5.475261211395264
0,0.0,0.0,0,-38.23092269897461,5.8511738777160645,-11.163360595703125,-0.023066788911819458,-0.0557657852768898,0.10705515742301941,-0.01028701663017273,-3.166060447692871,-4.144735336303711
0,0.0,0.0,0,-38.23159408569336,5.8516058921813965,-11.162979125976562,-0.10995863378047943,-0.06446008384227753,0.06744945049285889,-1.2704614400863647,-2.262143611907959,-3.944169759750366
0,0.0,0.0,0,-38.231842041015625,5.851899147033691,-11.162643432617188,-0.12977172434329987,-0.02401069365441799,0.098199762403965,-1.6885592937469482,4.766540050506592,3.018559455871582
0,0.0,0.0,0,-38.23220443725586,5.85208797454834,-11.162277221679688,-0.08483016490936279,-0.05222373455762863,0.15763631463050842,-0.13416074216365814,0.40002763271331787,5.686660289764404
0,0.0,0.0,0,-38.23249435424805,5.852466583251953,-11.162063598632812,-0.020026538521051407,-0.01882188767194748,0.15446487069129944,0.7392051815986633,0.407854825258255,0.1409868448972702
0,0.0,0.0,0,-38.23310470581055,5.852462291717529,-11.161651611328125,-0.055962275713682175,-0.09214058518409729,0.13585424423217773,-1.350521445274353,-2.1685943603515625,-2.4948723316192627
0,0.0,0.0,0,-38.233482360839844,5.852764129638672,-11.16131591796875,-0.0724317729473114,-0.07807223498821259,0.17030298709869385,-2.5634710788726807,0.21945501863956451,3.6130242347717285
0,0.0,0.0,0,-38.23379135131836,5.852981090545654,-11.16094970703125,-0.044836342334747314,-0.09639594703912735,0.14432364702224731,-2.0344018936157227,-1.6135257482528687,-2.5289459228515625
0,0.0,0.0,0,-38.23444747924805,5.853184223175049,-11.160552978515625,-0.04946647956967354,-0.07107590138912201,0.14476032555103302,0.9466466307640076,1.2830370664596558,0.1674336940050125
0,0.0,0.0,0,-38.23495864868164,5.853063106536865,-11.159988403320312,-0.04958599433302879,-0.14869214594364166,0.15642419457435608,-0.712943434715271,-0.7380180358886719,0.324017733335495
0,0.0,0.0,0,-38.23536682128906,5.853654861450195,-11.159576416015625,-0.03206787258386612,-0.0758187547326088,0.20008093118667603,-1.2495067119598389,-1.5195051431655884,5.500112056732178
0,0.0,0.0,0,-38.2360725402832,5.8538432121276855,-11.159011840820312,-0.01833387464284897,-0.053649939596652985,0.14187514781951904,1.6121201515197754,-1.3291950225830078,-5.3971757888793945
0,0.0,0.0,0,-38.236778259277344,5.854019641876221,-11.158370971679688,-0.09421373903751373,-0.04451175034046173,0.13812080025672913,-2.44903826713562,0.8556239008903503,-0.46462884545326233
0,0.0,0.0,0,-38.237464904785156,5.853981971740723,-11.157699584960938,-0.0830991119146347,-0.0955754965543747,0.15852542221546173,0.9330554008483887,1.6807889938354492,1.2300174236297607
0,0.0,0.0,0,-38.23806381225586,5.854321002960205,-11.157058715820312,-0.05341024324297905,-0.12060585618019104,0.18981458246707916,-0.6472418904304504,-3.5197887420654297,3.3567168712615967
0,0.0,0.0,0,-38.239078521728516,5.85455322265625,-11.156265258789062,-0.09749643504619598,-0.06952798366546631,0.13033771514892578,0.5985117554664612,-0.909692108631134,-5.336320877075195
0,0.0,0.0,0,-38.23989486694336,5.854898929595947,-11.155349731445312,-0.1463877260684967,-0.05152661353349686,0.13560573756694794,-1.5310059785842896,-0.04622771963477135,0.6668950915336609
0,0.0,0.0,0,-38.24048614501953,5.855121612548828,-11.154495239257812,-0.11608564853668213,0.0045087216421961784,0.1733507215976715,-1.0045262575149536,3.9050662517547607,4.092419624328613
0,0.0,0.0,0,-38.241207122802734,5.855444431304932,-11.153564453125,-0.03263910487294197,0.00602676160633564,0.1897655874490738,1.136060118675232,-1.470306158065796,2.007316827774048
0,0.0,0.0,0,-38.24200439453125,5.855751991271973,-11.152679443359375,-0.013589974492788315,0.03912565857172012,0.13244560360908508,2.5751261711120605,-0.5136761665344238,-5.302801132202148
0,0.0,0.0,0,-38.24298858642578,5.855882167816162,-11.151763916015625,-0.07739872485399246,-0.024787940084934235,0.13248807191848755,0.548423171043396,-1.3984389305114746,-0.7381885647773743
0,0.0,0.0,0,-38.24360656738281,5.856157302856445,-11.151031494140625,-0.08619342744350433,0.02459927462041378,0.1661074459552765,-2.1096410751342773,1.7655929327011108,3.760787010192871
0,0.0,0.0,0,-38.24436569213867,5.856371879577637,-11.150192260742188,-0.07109040021896362,0.05903537571430206,0.15819241106510162,-2.2075283527374268,-0.28756386041641235,-0.2806544303894043
0,0.0,0.0,0,-38.24504470825195,5.855885028839111,-11.149734497070312,-0.011700581759214401,0.1300954967737198,0.1625707894563675,1.1786065101623535,5.9055495262146,0.7232257127761841
0,0.0,0.0,0,-38.245853424072266,5.855319023132324,-11.149139404296875,0.0033815428614616394,0.023148953914642334,0.18221423029899597,-0.8387573957443237,-2.261009454727173,1.1172112226486206
0,0.0,0.0,0,-38.24668884277344,5.854921817779541,-11.14874267578125,0.025279074907302856,-0.011331755667924881,0.2237495332956314,-0.31795063614845276,-1.5644620656967163,4.0308451652526855
0,0.0,0.0,0,-38.24761199951172,5.85442590713501,-11.148269653320312,0.00920453667640686,-0.029584258794784546,0.16652043163776398,-1.7712754011154175,-4.100897789001465,-5.432941436767578
0,0.0,0.0,0,-38.24876403808594,5.853857040405273,-11.147705078125,-0.07148568332195282,-0.0177005548030138,0.17542757093906403,-1.3082849979400635,1.759742021560669,0.6881753206253052
0,0.0,0.0,0,-38.24974822998047,5.8531293869018555,-11.147171020507812,-0.06337887793779373,-0.06028904765844345,0.1853604018688202,0.18704631924629211,0.5449131727218628,0.48287662863731384
0,0.0,0.0,0,-38.250694274902344,5.852632522583008,-11.1466064453125,-0.031419478356838226,-0.09510211646556854,0.20540016889572144,-1.3585515022277832,-4.204631328582764,2.220618486404419
0,0.0,0.0,0,-38.25190353393555,5.851925373077393,-11.145950317382812,-0.038034699857234955,-0.06979940086603165,0.16159330308437347,0.27388015389442444,0.7480923533439636,-4.189783096313477
0,0.0,0.0,0,-38.25308609008789,5.851284980773926,-11.145370483398438,-0.054424211382865906,-0.1050146073102951,0.1921393722295761,-1.8712670803070068,-2.3029227256774902,2.9390857219696045
0,0.0,0.0,0,-38.25411605834961,5.850896835327148,-11.144927978515625,0.01948423683643341,0.009922683238983154,0.16937826573848724,1.4582256078720093,2.1288206577301025,-1.0502129793167114
0,0.0,0.0,0,-38.255348205566406,5.850261688232422,-11.144378662109375,0.038687072694301605,0.03256251662969589,0.1470906138420105,1.207144021987915,-1.04763925075531,-1.802352786064148
0,0.0,0.0,0,-38.25648880004883,5.849522590637207,-11.143814086914062,0.03704211860895157,0.05901181697845459,0.12519648671150208,-0.004037438426166773,0.8336457014083862,-1.9607844352722168
0,0.0,0.0,0,-38.257667541503906,5.848696708679199,-11.143234252929688,0.03318728506565094,0.020549487322568893,0.15468844771385193,-1.8955535888671875,-0.24239999055862427,2.598903179168701
0,0.0,0.0,0,-38.25897216796875,5.8481245040893555,-11.142898559570312,0.045548319816589355,0.03753592073917389,0.1364821493625641,0.8492521643638611,-2.7899820804595947,-1.2702535390853882
0,0.0,0.0,0,-38.260398864746094,5.847332954406738,-11.142425537109375,-0.01759789139032364,0.05166950076818466,0.09545256942510605,0.23830781877040863,0.7132190465927124,-4.121827125549316
0,0.0,0.0,0,-38.261653900146484,5.846679210662842,-11.142013549804688,-0.07299724966287613,0.07743427902460098,0.11326009035110474,-2.4989569187164307,2.183427095413208,1.7674412727355957
0,0.0,0.0,0,-38.26280212402344,5.845771789550781,-11.141571044921875,-0.04027842730283737,0.06253799796104431,0.14718252420425415,-0.8830934166908264,1.2038812637329102,3.2128076553344727
0,0.0,0.0,0,-38.26422119140625,5.845191478729248,-11.141632080078125,-0.006578534841537476,0.0718151330947876,0.14676880836486816,2.044616937637329,-0.763093888759613,0.2302311360836029
0,0.0,0.0,0,-38.26581573486328,5.844295501708984,-11.1417236328125,-0.03763868659734726,0.02340465784072876,0.0923893004655838,2.751932144165039,-1.0490745306015015,-5.959424018859863
0,0.0,0.0,0,-38.267364501953125,5.843508243560791,-11.141830444335938,-0.143278568983078,-0.032213784754276276,0.1107194647192955,-0.3869425058364868,-0.07303360849618912,0.901752769947052
0,0.0,0.0,0,-38.268733978271484,5.842654228210449,-11.141937255859375,-0.1679404377937317,-0.05943235754966736,0.12229946255683899,-1.9836621284484863,0.17718705534934998,0.8250672221183777
0,0.0,0.0,0,-38.270057678222656,5.841938018798828,-11.14202880859375,-0.16719862818717957,-0.0612240731716156,0.11970086395740509,-2.390418291091919,-1.2591205835342407,-0.009598955512046814
0,0.0,0.0,0,-38.27145767211914,5.840997219085693,-11.142044067382812,-0.11783707141876221,-0.03162630274891853,0.10138016194105148,0.7981416583061218,3.6032793521881104,-1.7459735870361328
0,0.0,0.0,0,-38.27277374267578,5.84003210067749,-11.142059326171875,-0.04764135181903839,-0.09735167026519775,0.15248438715934753,0.9987921714782715,-0.908989429473877,4.605900287628174
0,0.0,0.0,0,-38.27424240112305,5.839335918426514,-11.142303466796875,-0.03287672996520996,-0.08008718490600586,0.11781903356313705,-1.2199872732162476,-4.085699558258057,-2.6250340938568115
0,0.0,0.0,0,-38.27580642700195,5.838488578796387,-11.142379760742188,-0.04863223433494568,-0.06844298541545868,0.07513673603534698,-1.9044164419174194,-3.194931983947754,-3.6843008995056152
0,0.0,0.0,0,-38.277198791503906,5.8376359939575195,-11.14251708984375,-0.04329632967710495,-0.013912498950958252,0.04764518514275551,-0.5227159857749939,2.546241283416748,-2.347723960876465
0,0.0,0.0,0,-38.27867126464844,5.8366241455078125,-11.142562866210938,-0.011622220277786255,-0.04310154169797897,0.08735474944114685,-0.11542383581399918,0.7440959811210632,3.6243903636932373
0,0.0,0.0,0,-38.280120849609375,5.835864067077637,-11.14276123046875,0.01946386694908142,-0.017969705164432526,0.0767703503370285,-0.48163458704948425,-1.8288211822509766,-0.44202879071235657
0,0.0,0.0,0,-38.2818603515625,5.834956645965576,-11.142929077148438,0.0036774873733520508,-0.014041602611541748,0.04523433744907379,0.8181356191635132,-0.9638091325759888,-3.025700807571411
0,0.0,0.0,0,-38.28360366821289,5.833994388580322,-11.14306640625,-0.03772788494825363,-0.011508569121360779,0.056067973375320435,0.3725397288799286,0.980266273021698,0.8929175734519958
0,0.0,0.0,0,-38.28529739379883,5.83301305770874,-11.14324951171875,-0.048546284437179565,-0.045269519090652466,0.03862283378839493,-0.657235860824585,-1.8553636074066162,-1.9355181455612183
0,0.0,0.0,0,-38.28715133666992,5.832192897796631,-11.143386840820312,-0.10631769150495529,-0.02711375057697296,0.004295474849641323,0.051269400864839554,-1.4327406883239746,-3.1969823837280273
0,0.0,0.0,0,-38.288944244384766,5.83108377456665,-11.143402099609375,-0.18060296773910522,-0.061541832983493805,-0.021884560585021973,-0.2523774802684784,1.0321502685546875,-3.3422129154205322
0,0.0,0.0,0,-38.29078674316406,5.830107688903809,-11.143539428710938,-0.21459759771823883,-0.08395497500896454,0.04945928230881691,0.7101336717605591,1.3322663307189941,6.589225769042969
0,0.0,0.0,0,-38.29259490966797,5.82904577255249,-11.143692016601562,-0.17974819242954254,-0.07665301859378815,0.03315584361553192,2.031614065170288,-1.2447936534881592,-1.3438751697540283
0,0.0,0.0,0,-38.29468536376953,5.828094959259033,-11.143722534179688,-0.28704026341438293,-0.06552321463823318,0.01879298686981201,-0.7409600615501404,-0.5792206525802612,-1.5553324222564697
0,0.0,0.0,0,-38.29667663574219,5.826655864715576,-11.143692016601562,-0.311781644821167,-0.09477706253528595,0.0010446601081639528,0.15275366604328156,2.9685840606689453,-2.544969081878662
0,0.0,0.0,0,-38.29840850830078,5.825156211853027,-11.143966674804688,-0.34920844435691833,-0.19755768775939941,0.050161026418209076,-1.0454046726226807,-0.5809977650642395,3.6835033893585205
0,0.0,0.0,0,-38.30009078979492,5.823816299438477,-11.144317626953125,-0.35170626640319824,-0.20621290802955627,0.016843199729919434,-0.9340673685073853,-0.992920994758606,-3.251493453979492
0,0.0,0.0,0,-38.30172348022461,5.822170257568359,-11.144577026367188,-0.35189875960350037,-0.29596418142318726,0.04620686173439026,-0.22381286323070526,0.12860336899757385,1.8568756580352783
0,0.0,0.0,0,-38.3031120300293,5.820827960968018,-11.144973754882812,-0.34107714891433716,-0.2921138107776642,0.08198469877243042,-2.614335298538208,-0.7037604451179504,3.897442579269409
0,0.0,0.0,0,-38.304630279541016,5.819533824920654,-11.145217895507812,-0.26811420917510986,-0.2874526381492615,0.08728259056806564,0.882958710193634,-1.2120217084884644,0.9580405950546265
0,0.0,0.0,0,-38.30583572387695,5.818420886993408,-11.145538330078125,-0.23807479441165924,-0.21281439065933228,0.07130088657140732,-3.531935691833496,0.8203420042991638,-0.5809994339942932
0,0.0,0.0,0,-38.3071174621582,5.817059516906738,-11.145645141601562,-0.15928924083709717,-0.21660704910755157,0.10154884308576584,-0.9306364059448242,0.13243630528450012,3.134645462036133
0,0.0,0.0,0,-38.3082389831543,5.816165924072266,-11.146148681640625,-0.07149496674537659,-0.1207684874534607,0.10230302065610886,0.014326721429824829,-0.2887018620967865,1.3258800506591797
0,0.0,0.0,0,-38.30967712402344,5.815177917480469,-11.146469116210938,-0.015856891870498657,-0.07164278626441956,0.09074520319700241,1.1059170961380005,-0.9839432239532471,-0.4860255718231201
0,0.0,0.0,0,-38.310848236083984,5.814097881317139,-11.146804809570312,0.041155099868774414,-0.025449708104133606,0.101381815969944,0.4340864419937134,1.1629624366760254,1.3558619022369385
0,0.0,0.0,0,-38.312294006347656,5.813019275665283,-11.147079467773438,0.052177995443344116,-0.03303214907646179,0.09549210965633392,-0.18463453650474548,-2.6103169918060303,-0.47660765051841736
0,0.0,0.0,0,-38.31380844116211,5.811836242675781,-11.147369384765625,0.05667145550251007,0.00023101270198822021,0.055830880999565125,1.0821864604949951,-0.7691025733947754,-3.598740577697754
0,0.0,0.0,0,-38.31538391113281,5.810508728027344,-11.147613525390625,0.011138781905174255,0.00013273954391479492,0.03681625425815582,-0.9870577454566956,1.0091513395309448,-2.0424768924713135
0,0.0,0.0,0,-38.3170166015625,5.809230804443359,-11.14794921875,-0.008013024926185608,-0.015551075339317322,0.07346942275762558,-0.8840713500976562,-0.4101816415786743,3.4895501136779785
0,0.0,0.0,0,-38.318817138671875,5.807979583740234,-11.148345947265625,0.012209996581077576,-0.012988150119781494,0.06508278846740723,1.4757381677627563,-2.62406063079834,-0.599338948726654
0,0.0,0.0,0,-38.32072067260742,5.806604385375977,-11.148696899414062,-0.026165246963500977,0.03944888710975647,0.030874814838171005,0.5233891010284424,1.2829556465148926,-2.9973113536834717
0,0.0,0.0,0,-38.32266616821289,5.805008888244629,-11.148895263671875,-0.08782497048377991,0.009461760520935059,0.03587406128644943,-1.14255952835083,0.8648432493209839,0.1780547946691513
0,0.0,0.0,0,-38.32453155517578,5.803227424621582,-11.149124145507812,-0.10294098407030106,0.01949906349182129,0.08377031236886978,0.25798046588897705,2.286113739013672,4.687189102172852
0,0.0,0.0,0,-38.326480865478516,5.80122709274292,-11.1495361328125,-0.091767817735672,-0.019580617547035217,0.0726475641131401,0.48969098925590515,-0.9930416941642761,-1.3859496116638184
0,0.0,0.0,0,-38.32857131958008,5.79921817779541,-11.14984130859375,-0.15521001815795898,-0.08820122480392456,0.07034650444984436,-0.9973297715187073,-0.6137984395027161,-0.7800573706626892
0,0.0,0.0,0,-38.33091735839844,5.797100067138672,-11.150131225585938,-0.18509839475154877,-0.14858604967594147,0.07305832207202911,-2.0480129718780518,1.1996396780014038,-0.4601227641105652
0,0.0,0.0,0,-38.33311462402344,5.795145034790039,-11.150436401367188,-0.17869876325130463,-0.21831315755844116,0.12426964193582535,-3.214477062225342,-2.7315638065338135,4.629734992980957
0,0.0,0.0,0,-38.33562469482422,5.793253421783447,-11.150680541992188,-0.13605040311813354,-0.23551489412784576,0.07932805269956589,1.7968602180480957,-3.749107837677002,-4.279407501220703
0,0.0,0.0,0,-38.33817672729492,5.7914533615112305,-11.150634765625,-0.192458838224411,-0.20098094642162323,0.08078707754611969,0.03491542115807533,-0.8425891995429993,0.6640694737434387
0,0.0,0.0,0,-38.34060287475586,5.789681434631348,-11.150634765625,-0.18926258385181427,-0.1409326046705246,0.08292935788631439,1.1874494552612305,0.6952226161956787,0.7919337749481201
0,0.0,0.0,0,-38.34294891357422,5.787926197052002,-11.150543212890625,-0.14937186241149902,-0.08899049460887909,0.10128738731145859,1.0606356859207153,1.0311386585235596,2.261007308959961
0,0.0,0.0,0,-38.345420837402344,5.786120414733887,-11.150482177734375,-0.1112104207277298,-0.01915869116783142,0.0565471276640892,3.01949143409729,2.5988006591796875,-3.9979374408721924
0,0.0,0.0,0,-38.347984313964844,5.784191608428955,-11.150238037109375,-0.14954562485218048,-0.11242570728063583,0.05114048346877098,1.997928500175476,-1.134442925453186,-1.3840023279190063
0,0.0,0.0,0,-38.350276947021484,5.782479763031006,-11.150161743164062,-0.18125778436660767,-0.10893069952726364,0.04086984694004059,-0.5145944356918335,-0.3864193260669708,-0.9555389881134033
0,0.0,0.0,0,-38.352718353271484,5.780921936035156,-11.149978637695312,-0.21967405080795288,-0.10429451614618301,0.03769434988498688,0.012373419478535652,-1.3161308765411377,-0.15468190610408783
0,0.0,0.0,0,-38.35491180419922,5.779094219207764,-11.149810791015625,-0.21618348360061646,-0.06098916381597519,-0.00631401501595974,1.6572264432907104,4.518734455108643,-4.421956539154053
0,0.0,0.0,0,-38.35729217529297,5.777071475982666,-11.14947509765625,-0.262502521276474,-0.17069396376609802,0.03748813271522522,-1.5908721685409546,-0.3032459020614624,3.21048641204834
0,0.0,0.0,0,-38.35927963256836,5.77527379989624,-11.149261474609375,-0.1718597710132599,-0.14611707627773285,0.059028260409832,1.846567153930664,0.8821796774864197,2.3275442123413086
0,0.0,0.0,0,-38.361610412597656,5.773401737213135,-11.148910522460938,-0.19874432682991028,-0.18939606845378876,0.04662855714559555,-0.34575939178466797,-2.8726978302001953,-1.4085990190505981
0,0.0,0.0,0,-38.36390686035156,5.771592140197754,-11.1485595703125,-0.21754294633865356,-0.16266126930713654,0.03195032477378845,0.6663460731506348,1.2083345651626587,-1.3236889839172363
0,0.0,0.0,0,-38.36603927612305,5.769618511199951,-11.148101806640625,-0.25717246532440186,-0.19252125918865204,0.05642212554812431,-1.9634463787078857,1.0750879049301147,2.015950918197632
0,0.0,0.0,0,-38.3680419921875,5.7678728103637695,-11.147689819335938,-0.2337622195482254,-0.1576322615146637,0.08634190261363983,-0.9576113820075989,1.1326651573181152,3.2321527004241943
0,0.0,0.0,0,-38.37002944946289,5.7658538818359375,-11.147125244140625,-0.1910109966993332,-0.1916329264640808,0.07195630669593811,0.2255478799343109,0.14340505003929138,-1.8437504768371582
0,0.0,0.0,0,-38.37215805053711,5.763961315155029,-11.14654541015625,-0.21357202529907227,-0.23918123543262482,0.1067594513297081,-1.4376503229141235,-0.44155773520469666,3.0297420024871826
0,0.0,0.0,0,-38.37412643432617,5.762139797210693,-11.146026611328125,-0.194548562169075,-0.3059758245944977,0.10955160111188889,-1.7835644483566284,-5.059186935424805,0.0744277760386467
0,0.0,0.0,0,-38.37584686279297,5.760837554931641,-11.145828247070312,-0.21909749507904053,-0.23077520728111267,0.0937696322798729,-0.09089410305023193,-0.26541128754615784,-0.7307173013687134
0,0.0,0.0,0,-38.377540588378906,5.759272575378418,-11.145523071289062,-0.24100472033023834,-0.24324598908424377,0.0780695378780365,-0.7347487211227417,0.6765838861465454,-1.7336361408233643
0,0.0,0.0,0,-38.37891387939453,5.757928371429443,-11.145248413085938,-0.19481661915779114,-0.2143586128950119,0.13168522715568542,0.7364956140518188,1.6612110137939453,5.432436943054199
0,0.0,0.0,0,-38.38042449951172,5.756476879119873,-11.145004272460938,-0.1543702781200409,-0.2238706648349762,0.10717034339904785,0.6556265354156494,-2.141408681869507,-2.404069185256958
0,0.0,0.0,0,-38.38209533691406,5.755152225494385,-11.1446533203125,-0.18405447900295258,-0.22618690133094788,0.08646707981824875,1.7730882167816162,-1.0914605855941772,-1.8851115703582764
0,0.0,0.0,0,-38.383644104003906,5.753746509552002,-11.144287109375,-0.23354925215244293,-0.20769257843494415,0.06340456008911133,-1.0301531553268433,0.7570851445198059,-2.117847204208374
0,0.0,0.0,0,-38.38513946533203,5.752488613128662,-11.143875122070312,-0.24725687503814697,-0.19104382395744324,0.10034438222646713,0.7362663149833679,1.0854929685592651,3.7983779907226562
0,0.0,0.0,0,-38.38656234741211,5.751044273376465,-11.14349365234375,-0.23245108127593994,-0.16461697220802307,0.07098029553890228,1.3262702226638794,0.5747038722038269,-2.751763105392456
0,0.0,0.0,0,-38.38803482055664,5.749728679656982,-11.143020629882812,-0.2636362314224243,-0.18269230425357819,0.07532525062561035,1.335564136505127,0.2565615773200989,0.3479863703250885
0,0.0,0.0,0,-38.3893928527832,5.748171329498291,-11.142562866210938,-0.2654035687446594,-0.17890942096710205,0.08516266942024231,1.7132530212402344,2.5825564861297607,0.8353239893913269
0,0.0,0.0,0,-38.390724182128906,5.746763706207275,-11.14227294921875,-0.26843270659446716,-0.20541754364967346,0.10633166134357452,-0.41217413544654846,0.1530636101961136,1.8832603693008423
0,0.0,0.0,0,-38.39198303222656,5.745176315307617,-11.142013549804688,-0.21829098463058472,-0.1999310553073883,0.0770486518740654,2.1799075603485107,2.160888195037842,-3.129664897918701
0,0.0,0.0,0,-38.393211364746094,5.7435407638549805,-11.141616821289062,-0.23530322313308716,-0.3001368045806885,0.10548055171966553,-1.8854990005493164,-2.1111230850219727,2.149498462677002
0,0.0,0.0,0,-38.39411544799805,5.742259979248047,-11.141372680664062,-0.18631622195243835,-0.2579014003276825,0.1343604326248169,-1.3181737661361694,-1.3922687768936157,3.2595298290252686
0,0.0,0.0,0,-38.39506149291992,5.740823268890381,-11.141006469726562,-0.15479102730751038,-0.24298787117004395,0.11661971360445023,-2.3802716732025146,-2.1197781562805176,-1.610670804977417
0,0.0,0.0,0,-38.395957946777344,5.739413738250732,-11.140884399414062,-0.10595148056745529,-0.15919172763824463,0.10709411650896072,0.02462514117360115,2.7950263023376465,-0.6352378129959106
0,0.0,0.0,0,-38.39685821533203,5.737843036651611,-11.140594482421875,-0.03131967782974243,-0.20018167793750763,0.15079811215400696,0.9094961881637573,-0.46781882643699646,3.8642098903656006
0,0.0,0.0,0,-38.39783477783203,5.736832618713379,-11.140579223632812,0.017537042498588562,-0.12747955322265625,0.15408138930797577,0.6019752025604248,-2.0348963737487793,0.9038190245628357
0,0.0,0.0,0,-38.398963928222656,5.735437870025635,-11.140350341796875,0.028378203511238098,-0.12690965831279755,0.0985293835401535,1.5205979347229004,-2.0257439613342285,-5.366091251373291
0,0.0,0.0,0,-38.4001350402832,5.7341694831848145,-11.14019775390625,-0.03164009749889374,-0.07581383734941483,0.10386011004447937,-1.2859221696853638,1.4967985153198242,0.93097984790802
0,0.0,0.0,0,-38.40139389038086,5.732751369476318,-11.139968872070312,-0.042815111577510834,-0.06169939041137695,0.10560423135757446,-0.03780430182814598,0.6785176992416382,0.2609182298183441
0,0.0,0.0,0,-38.40224075317383,5.731174945831299,-11.139999389648438,-0.05560297518968582,-0.06686754524707794,0.1247495710849762,0.9914186000823975,-0.41546133160591125,1.9802734851837158
0,0.0,0.0,0,-38.40324401855469,5.7295098304748535,-11.139892578125,-0.06332539021968842,-0.03202269971370697,0.08454219996929169,1.474800944328308,1.3499282598495483,-3.7734427452087402
0,0.0,0.0,0,-38.40422821044922,5.727764129638672,-11.139816284179688,-0.0951518714427948,-0.0775449350476265,0.11438646912574768,0.9922206401824951,-0.5710723400115967,2.832526445388794
0,0.0,0.0,0,-38.40522766113281,5.7259745597839355,-11.139755249023438,-0.12131252884864807,-0.0712355375289917,0.08923852443695068,1.0625982284545898,0.884864866733551,-2.4242680072784424
0,0.0,0.0,0,-38.4062385559082,5.724017143249512,-11.139617919921875,-0.1535414755344391,-0.07990607619285583,0.08123260736465454,0.5467620491981506,2.6661083698272705,-0.9566400647163391
0,0.0,0.0,0,-38.40715026855469,5.721729755401611,-11.139328002929688,-0.13640089333057404,-0.1491139829158783,0.08186328411102295,1.388048768043518,2.7071914672851562,-0.6748490333557129
