pathtime,mj_vx,mj_vy,cc_tgt,px,py,pz,vx,vy,vz,ax,ay,az
0,0.0,0.0,0,-38.356971740722656,5.774494647979736,-10.966354370117188,0.06509151309728622,-0.08652539551258087,0.0386761873960495,-0.7499417662620544,0.7392612099647522,-3.5999207496643066
0,0.0,0.0,0,-38.35626220703125,5.77376127243042,-10.966079711914062,0.09286965429782867,-0.07707379758358002,0.05361262336373329,-0.7351301312446594,2.610318660736084,1.2792713642120361
0,0.0,0.0,0,-38.35546875,5.77311372756958,-10.965988159179688,0.16887515783309937,-0.03783733397722244,0.07560475170612335,0.8990239500999451,2.770616054534912,2.1441869735717773
0,0.0,0.0,0,-38.354854583740234,5.772745609283447,-10.965866088867188,0.21292605996131897,-0.024977784603834152,0.11078742146492004,1.66877019405365,-2.1736035346984863,3.751246213912964
0,0.0,0.0,0,-38.35416030883789,5.7725677490234375,-10.965896606445312,0.20924150943756104,0.05438598245382309,0.0704176127910614,0.2102508246898651,-1.875457525253296,-3.2585949897766113
0,0.0,0.0,0,-38.35359573364258,5.772177219390869,-10.965713500976562,0.18128618597984314,0.061744917184114456,0.012370005249977112,0.32871174812316895,-1.5850216150283813,-5.553255081176758
0,0.0,0.0,0,-38.35286331176758,5.771880626678467,-10.965713500976562,0.1477746218442917,0.07469884306192398,0.005364581942558289,-1.3183075189590454,2.4960148334503174,-0.7629485130310059
0,0.0,0.0,0,-38.3520393371582,5.771403789520264,-10.9656982421875,0.17564940452575684,0.04656311497092247,0.0274001844227314,-2.088252067565918,0.6590949892997742,1.8137186765670776
0,0.0,0.0,0,-38.35120391845703,5.771189212799072,-10.96588134765625,0.2253703624010086,0.06905658543109894,0.05638277158141136,-0.24555453658103943,-0.7934258580207825,2.949136734008789
0,0.0,0.0,0,-38.35067367553711,5.77094841003418,-10.96600341796875,0.2447044551372528,0.0840742364525795,0.03348773717880249,1.2161099910736084,-2.7013070583343506,-2.03001070022583
0,0.0,0.0,0,-38.35000228881836,5.7707672119140625,-10.9661865234375,0.2285919189453125,0.14618921279907227,0.03795555606484413,-0.7127170562744141,0.8601799607276917,0.7753797769546509
0,0.0,0.0,0,-38.34943771362305,5.770318984985352,-10.966278076171875,0.22377963364124298,0.1559600681066513,0.023255283012986183,0.9366949796676636,-0.2659795582294464,-1.3651119470596313
0,0.0,0.0,0,-38.34902572631836,5.769813060760498,-10.966278076171875,0.21407651901245117,0.16419470310211182,0.03980937600135803,-0.2971019446849823,-0.5861283540725708,1.7164627313613892
0,0.0,0.0,0,-38.34872817993164,5.769203186035156,-10.966262817382812,0.20559567213058472,0.1898995339870453,0.0075282566249370575,1.353523850440979,0.5954843163490295,-3.057034969329834
0,0.0,0.0,0,-38.34843444824219,5.768465518951416,-10.966232299804688,0.14740613102912903,0.16447681188583374,-0.002171136438846588,-0.23422527313232422,-0.4414960741996765,-0.9645318388938904
0,0.0,0.0,0,-38.3481559753418,5.767483711242676,-10.96612548828125,0.11199772357940674,0.1396184265613556,-0.011257044039666653,0.41065478324890137,2.804821014404297,-1.1209055185317993
0,0.0,0.0,0,-38.3477783203125,5.766357421875,-10.966018676757812,0.1132299080491066,0.053990405052900314,0.030073659494519234,0.6884604692459106,1.8206309080123901,3.4642624855041504
0,0.0,0.0,0,-38.347354888916016,5.765178203582764,-10.965850830078125,0.10574009269475937,-0.03004886582493782,0.02814769186079502,-0.280851811170578,-0.8530781269073486,-0.7358812689781189
0,0.0,0.0,0,-38.34713363647461,5.764172554016113,-10.965667724609375,0.047014784067869186,-0.09619797021150589,0.014768462628126144,-1.3640542030334473,-4.285922527313232,-1.446372151374817
0,0.0,0.0,0,-38.34657669067383,5.763125419616699,-10.9654541015625,0.024763446301221848,-0.08668515831232071,-0.022192202508449554,-2.879934549331665,0.5809863805770874,-3.6995503902435303
0,0.0,0.0,0,-38.34607696533203,5.761941432952881,-10.965194702148438,0.04549580439925194,-0.12630267441272736,0.017112448811531067,-1.746376633644104,2.034672260284424,3.32216477394104
0,0.0,0.0,0,-38.34538650512695,5.76093053817749,-10.965011596679688,0.1630016416311264,-0.1483975499868393,0.0624367892742157,1.994375228881836,-0.695077657699585,4.145599365234375
0,0.0,0.0,0,-38.34497833251953,5.760432243347168,-10.9647216796875,0.15281635522842407,-0.08213922381401062,0.07516757398843765,0.10175120830535889,-3.1884093284606934,2.1482417583465576
0,0.0,0.0,0,-38.34446334838867,5.759610176086426,-10.964385986328125,0.16345635056495667,-0.006185375154018402,0.039503999054431915,1.9231345653533936,-0.08453104645013809,-2.8927860260009766
0,0.0,0.0,0,-38.34400177001953,5.758810520172119,-10.963958740234375,0.12038670480251312,-0.0009310916066169739,-0.008256932720541954,-0.19256018102169037,-1.4442987442016602,-4.512334823608398
0,0.0,0.0,0,-38.3435173034668,5.758025169372559,-10.963607788085938,0.10336020588874817,0.03370188921689987,-0.005633090157061815,0.6255537271499634,3.9311187267303467,0.26873543858528137
0,0.0,0.0,0,-38.342811584472656,5.757278919219971,-10.963241577148438,0.1336102932691574,0.007529810070991516,0.006363872438669205,-0.8748128414154053,0.40133312344551086,0.8362970352172852
0,0.0,0.0,0,-38.34231185913086,5.7567338943481445,-10.962966918945312,0.146918386220932,0.005578570067882538,0.020214509218931198,0.523472785949707,-0.22778353095054626,1.3587983846664429
0,0.0,0.0,0,-38.34190368652344,5.756253719329834,-10.962554931640625,0.13539239764213562,-0.018932033330202103,-0.006052007433027029,0.7167088985443115,-4.330867767333984,-2.4274275302886963
0,0.0,0.0,0,-38.34156036376953,5.755757808685303,-10.962158203125,0.06627550721168518,0.033513594418764114,-0.011051390320062637,-0.8074448704719543,2.4167568683624268,-0.1448371410369873
0.0,0.0028122824,0.02011656,0,-38.341064453125,5.755098819732666,-10.961654663085938,0.09084146469831467,0.02992728352546692,-2.0557548850774765e-05,0.38142701983451843,2.342463731765747,0.8004237413406372
0.0,0.0028122824,0.02011656,0,-38.340599060058594,5.754463195800781,-10.961257934570312,0.09489656984806061,0.009931690990924835,0.020397113636136055,-0.268245667219162,0.5520014762878418,1.7718030214309692
0.0,0.0028122824,0.02011656,0,-38.340213775634766,5.7539448738098145,-10.960784912109375,0.12594486773014069,-0.01867762953042984,0.008211319334805012,1.337802529335022,-4.040428161621094,-1.1725236177444458
0.0,0.0028122824,0.02011656,0,-38.339996337890625,5.7536091804504395,-10.960372924804688,0.06913752108812332,0.02874283492565155,-0.013345807790756226,-0.7656320929527283,-0.5068942904472351,-1.6454111337661743
0.0,0.0028122824,0.02011656,0,-38.3398323059082,5.753023147583008,-10.959823608398438,0.04047687351703644,0.025026164948940277,-0.03851526603102684,0.13307376205921173,1.3412359952926636,-2.6526405811309814
0.0,0.0028122824,0.02011656,0,-38.339481353759766,5.752379417419434,-10.9593505859375,0.034876398742198944,0.031199295073747635,-0.026045633479952812,-0.36050254106521606,3.547956705093384,0.9666038155555725
0.0,0.0028122824,0.02011656,0,-38.33910369873047,5.751601696014404,-10.958770751953125,0.071522057056427,-0.03279636800289154,0.002591415075585246,0.33363649249076843,-0.30006492137908936,2.254257917404175
0.0,0.0028122824,0.02011656,0,-38.3387336730957,5.7511186599731445,-10.95831298828125,0.08544526249170303,-0.019991392269730568,0.027605963870882988,1.2093920707702637,-2.0351908206939697,2.7680909633636475
0.0,0.0028122824,0.02011656,0,-38.338462829589844,5.750722885131836,-10.957687377929688,0.029538914561271667,0.021694086492061615,-0.00965878739953041,-0.6151788234710693,-2.481039047241211,-3.138411045074463
0.0,0.0028122824,0.02011656,0,-38.33791732788086,5.750349521636963,-10.957061767578125,0.015900172293186188,0.08459431678056717,-0.01735537499189377,-0.2673133313655853,5.038915634155273,-0.6794372200965881
0.0,0.0029107083,0.020645576,0,-38.33731460571289,5.74970817565918,-10.956268310546875,0.031047891825437546,-0.019023368135094643,-0.008116706274449825,-0.9760450124740601,-0.12637752294540405,0.01106226071715355
0.0,0.0029107083,0.020645576,0,-38.33683395385742,5.749353885650635,-10.955551147460938,0.050541944801807404,-0.018346179276704788,0.03869381174445152,-0.029136985540390015,0.3666762113571167,4.6125407218933105
0.0,0.0029107083,0.020645576,0,-38.336368560791016,5.7490234375,-10.954803466796875,0.07748035341501236,-0.013748563826084137,0.014926820062100887,0.4080731272697449,-2.2072722911834717,-2.1964118480682373
0.0,0.0029107083,0.020645576,0,-38.33616256713867,5.748762130737305,-10.95404052734375,0.005113832652568817,0.004041023552417755,0.01535049919039011,-0.5661613941192627,-1.4156569242477417,0.3406936228275299
0.0,0.0029107083,0.020645576,0,-38.33557891845703,5.7483439445495605,-10.953201293945312,0.001221872866153717,0.016964390873908997,-0.00526000652462244,-1.4209710359573364,0.7818219661712646,-2.0428507328033447
0.0,0.0029107083,0.020645576,0,-38.335105895996094,5.748026371002197,-10.952423095703125,0.0038970261812210083,0.0158170647919178,0.03232087939977646,-0.028348462656140327,0.19661571085453033,3.6987485885620117
0.0,0.0029107083,0.020645576,0,-38.33462905883789,5.747405529022217,-10.951629638671875,0.04945266991853714,0.007099758833646774,0.0008650105446577072,1.8018584251403809,0.674287736415863,-3.3052213191986084
0.0,0.0029107083,0.020645576,0,-38.33423614501953,5.746922969818115,-10.950836181640625,0.04748815670609474,-0.07726031541824341,0.036839310079813004,-1.0618952512741089,-3.3782083988189697,3.15653395652771
0.0,0.0029107083,0.020645576,0,-38.333621978759766,5.746875762939453,-10.950164794921875,0.08912767469882965,0.009766198694705963,0.04632588103413582,-2.441340923309326,-2.2541871070861816,1.7281168699264526
0.0,0.0029107083,0.020645576,0,-38.332984924316406,5.746444225311279,-10.949493408203125,0.14090660214424133,0.08796489238739014,0.0508931502699852,-2.0228264331817627,3.291231393814087,0.6752429604530334
0.0,0.003577818,0.02423107,0,-38.332679748535156,5.745932579040527,-10.948883056640625,0.16263554990291595,0.07565110921859741,0.07146082073450089,0.026396190747618675,1.4352911710739136,1.8002557754516602
0.0,0.003577818,0.02423107,0,-38.33243942260742,5.745306491851807,-10.948272705078125,0.1096201241016388,-0.03210204094648361,0.05607632175087929,0.47590309381484985,-2.2407772541046143,-2.1331987380981445
0.0,0.003577818,0.02423107,0,-38.3327522277832,5.744743347167969,-10.947357177734375,0.01890457049012184,-0.02673240192234516,0.05587299168109894,0.6453734040260315,3.859858989715576,-0.20426921546459198
0.0,0.003577818,0.02423107,0,-38.33290481567383,5.7438459396362305,-10.946426391601562,0.025136776268482208,-0.12871718406677246,0.04778475686907768,3.5878384113311768,3.027979612350464,-1.9882512092590332
0.0,0.003577818,0.02423107,0,-38.3328857421875,5.743325233459473,-10.94561767578125,0.0015021562576293945,-0.22538644075393677,0.017178595066070557,-1.6419824361801147,-5.361877918243408,-3.466731309890747
0.0,0.003577818,0.02423107,0,-38.33293533325195,5.743200302124023,-10.944854736328125,0.000899583101272583,-0.11396779119968414,0.0015232646837830544,-0.05627003312110901,-0.16731604933738708,-0.577157735824585
0.0,0.003577818,0.02423107,0,-38.33283233642578,5.742868423461914,-10.944183349609375,0.03782608360052109,0.000218220055103302,0.00994155928492546,0.45410022139549255,-0.4992198646068573,1.77993643283844
0.0,0.003577818,0.02423107,0,-38.33298110961914,5.7425665855407715,-10.943496704101562,0.00941215455532074,0.03328201174736023,0.01818033680319786,-2.0220139026641846,-3.560157060623169,1.344730019569397
0.0,0.003577818,0.02423107,0,-38.33259963989258,5.742068767547607,-10.942825317382812,0.08095858246088028,0.07758063822984695,0.03806328773498535,-2.3597891330718994,2.190040111541748,2.016547203063965
0.0,0.003577818,0.02423107,0,-38.332496643066406,5.741200923919678,-10.942138671875,0.1406031847000122,0.008570410311222076,0.05383826792240143,-0.10054859519004822,2.0771806240081787,0.7462709546089172
0.0,0.0033673851,0.023100076,0,-38.332584381103516,5.740506172180176,-10.941513061523438,0.12682412564754486,-0.04849040508270264,0.05362889915704727,0.6066601872444153,2.2734358310699463,-0.6794955134391785
0.0,0.0033673851,0.023100076,0,-38.33271789550781,5.739929676055908,-10.94085693359375,0.03444642573595047,-0.10810823738574982,0.03982717916369438,-1.0365406274795532,-0.7926728129386902,-1.7429453134536743
0.0,0.0033673851,0.023100076,0,-38.3329963684082,5.7396039962768555,-10.94024658203125,-0.025064721703529358,-0.06624474376440048,0.030570421367883682,5.529826641082764,2.9088292121887207,-0.7571548819541931
0.0,0.0033673851,0.023100076,0,-38.332916259765625,5.73885440826416,-10.939605712890625,-0.08803226053714752,-0.1734514981508255,-0.000764237716794014,-1.7701736688613892,-3.966218948364258,-3.7189626693725586
0.0,0.0033673851,0.023100076,0,-38.332706451416016,5.738870143890381,-10.93902587890625,-0.04570701718330383,-0.08951964229345322,0.017708592116832733,1.0429861545562744,-1.1595271825790405,2.637997627258301
0.0,0.0033673851,0.023100076,0,-38.332244873046875,5.738523006439209,-10.938446044921875,0.05139290913939476,-0.0009524337947368622,0.00844984408468008,-1.169738531112671,1.025105595588684,-0.400128573179245
0.0,0.0033673851,0.023100076,0,-38.332027435302734,5.73844575881958,-10.937850952148438,0.07874191552400589,0.03645428270101547,0.03022868186235428,-3.7229297161102295,-2.6144168376922607,2.544111728668213
0.0,0.0033673851,0.023100076,0,-38.331642150878906,5.738209247589111,-10.937286376953125,0.15425926446914673,0.11288075894117355,0.03943140432238579,0.30801594257354736,0.6426181793212891,1.2724127769470215
0.0,0.0033673851,0.023100076,0,-38.331512451171875,5.737776279449463,-10.936691284179688,0.12150256335735321,0.12495993077754974,0.06002148985862732,-0.5074673295021057,2.3794407844543457,1.980006217956543
0.0,0.0033673851,0.023100076,0,-38.3314323425293,5.737249374389648,-10.936050415039062,0.09214381128549576,0.012742947787046432,0.06211033836007118,0.843188464641571,-1.2793666124343872,-0.4767417907714844
0.0,0.0029685975,0.020956716,0,-38.33130645751953,5.736746788024902,-10.93536376953125,0.03346429020166397,-0.029000183567404747,0.06323932856321335,-0.12144893407821655,3.3428120613098145,-0.400426983833313
0.0,0.0029685975,0.020956716,0,-38.331268310546875,5.736152648925781,-10.934707641601562,0.044860683381557465,-0.1479458063840866,0.06104102358222008,2.1306471824645996,0.7772802114486694,-1.1776129007339478
0.0,0.0029685975,0.020956716,0,-38.33144760131836,5.735401153564453,-10.934234619140625,0.02380622923374176,-0.16503751277923584,0.0598873533308506,-0.351261705160141,0.5054221749305725,-0.2597310543060303
0.0,0.0029685975,0.020956716,0,-38.33180236816406,5.734664440155029,-10.93359375,-0.00994313508272171,-0.1740683913230896,0.02941283956170082,-0.7197951674461365,-2.184264898300171,-2.930100440979004
0.0,0.0029685975,0.020956716,0,-38.332061767578125,5.734248161315918,-10.93310546875,-0.02887578308582306,-0.05486747995018959,0.0609162338078022,0.9224853515625,0.3705243170261383,3.9919192790985107
0.0,0.0029685975,0.020956716,0,-38.33236312866211,5.733482837677002,-10.932525634765625,-0.023118402808904648,-0.01281823217868805,0.015481533482670784,1.7155683040618896,0.6199341416358948,-4.318427085876465
0.0,0.0029685975,0.020956716,0,-38.33250427246094,5.732666969299316,-10.931884765625,-0.01378585770726204,-0.03927924484014511,0.05401018634438515,-0.9855636954307556,-0.12259896099567413,3.6538875102996826
0.0,0.0029685975,0.020956716,0,-38.3327751159668,5.7320475578308105,-10.931228637695312,0.024757228791713715,-0.017215045168995857,0.03132222220301628,-0.061835721135139465,-0.7692599892616272,-2.130868434906006
0.0,0.0029685975,0.020956716,0,-38.3330078125,5.731470108032227,-10.9305419921875,0.044788990169763565,-0.005378862842917442,0.051840778440237045,-0.811237096786499,-0.24659964442253113,2.0903143882751465
0.0,0.0029685975,0.020956716,0,-38.33323287963867,5.731081485748291,-10.929901123046875,0.06353271007537842,0.07307243347167969,0.054567813873291016,-1.4240576028823853,1.2796000242233276,0.6037300229072571
0.0,0.0030003453,0.021127352,0,-38.33339309692383,5.730447769165039,-10.929229736328125,0.09218953549861908,0.06538844108581543,0.05805746093392372,-0.15699520707130432,-0.5148270726203918,0.2643374502658844
0.0,0.0030003453,0.021127352,0,-38.33373260498047,5.729925632476807,-10.928558349609375,0.05805914103984833,0.053461793810129166,0.05821668729186058,-0.10286055505275726,-1.2423593997955322,0.029936738312244415
0.0,0.0030003453,0.021127352,0,-38.334041595458984,5.72928524017334,-10.92791748046875,0.014498129487037659,-0.003025732934474945,0.05594376102089882,-0.08450329303741455,-1.725941777229309,-0.4352891743183136
0.0,0.0030003453,0.021127352,0,-38.334251403808594,5.7288312911987305,-10.927261352539062,-0.02509024739265442,-0.006875939667224884,0.03751629590988159,-0.4048669636249542,0.4964672029018402,-1.886380672454834
0.0,0.0030003453,0.021127352,0,-38.33439254760742,5.728047847747803,-10.926605224609375,0.006707202643156052,-0.022848263382911682,0.04662475734949112,3.3660852909088135,5.1559953689575195,0.49059832096099854
0.0,0.0030003453,0.021127352,0,-38.33448028564453,5.727229595184326,-10.925949096679688,0.028491748496890068,-0.15231013298034668,0.05479605868458748,-0.13288559019565582,-3.0074636936187744,0.14731353521347046
0.0,0.0030003453,0.021127352,0,-38.334686279296875,5.7269768714904785,-10.925323486328125,-0.008870819583535194,-0.11047682911157608,0.01847015880048275,-2.699705123901367,-2.9658632278442383,-3.1837575435638428
0.0,0.0030003453,0.021127352,0,-38.33473587036133,5.72654914855957,-10.924514770507812,0.009141386486589909,-0.036917030811309814,0.0338117778301239,-0.27171972393989563,2.354252338409424,1.7785829305648804
0.0,0.0030003453,0.021127352,0,-38.33488845825195,5.726114749908447,-10.92376708984375,0.01728222146630287,0.05024657025933266,0.06388575583696365,1.3109570741653442,1.952139973640442,3.377399206161499
0.0,0.0030003453,0.021127352,0,-38.33504867553711,5.7254319190979,-10.9229736328125,0.04297555610537529,0.028550289571285248,0.03031282126903534,0.9848448634147644,-2.2093982696533203,-3.401223659515381
0.0,0.002623306,0.019100847,0,-38.33534622192383,5.724864482879639,-10.922134399414062,-0.002493385225534439,0.010856125503778458,0.032716184854507446,-0.6808964014053345,-1.102128505706787,0.23150160908699036
0.0,0.002623306,0.019100847,0,-38.335575103759766,5.724544525146484,-10.92138671875,0.009047022089362144,0.028156571090221405,0.027515724301338196,-0.6219909191131592,-0.24519088864326477,-0.46366819739341736
0.0,0.002623306,0.019100847,0,-38.3355827331543,5.724073886871338,-10.92034912109375,0.03569471836090088,0.05472959578037262,0.03750509396195412,0.12423758953809738,1.432896375656128,0.9926722645759583
0.0,0.002623306,0.019100847,0,-38.33563995361328,5.7234272956848145,-10.919387817382812,0.09255832433700562,0.08594419807195663,0.050572093576192856,0.5342220067977905,4.40377950668335,1.1161329746246338
0.0,0.002623306,0.019100847,0,-38.335731506347656,5.72275972366333,-10.91839599609375,0.1311579793691635,-0.013882484287023544,0.07995428889989853,-1.9947726726531982,-3.557692527770996,2.408773183822632
0.0,0.002623306,0.019100847,0,-38.33586120605469,5.722699165344238,-10.917510986328125,0.14899729192256927,0.07122017443180084,0.05924878269433975,-1.2107919454574585,-2.056302070617676,-1.5697133541107178
0.0,0.002623306,0.019100847,0,-38.33627700805664,5.722093105316162,-10.91650390625,0.1294802576303482,0.10840298980474472,0.053681567311286926,0.18210001289844513,3.591033935546875,-0.5058624744415283
0.0,0.002623306,0.019100847,0,-38.336578369140625,5.721476078033447,-10.915573120117188,0.11598766595125198,0.09439917653799057,0.09922273457050323,-1.1228961944580078,0.5089758634567261,4.423390865325928
0.0,0.002623306,0.019100847,0,-38.336883544921875,5.720827102661133,-10.914657592773438,0.14178717136383057,0.05369645357131958,0.1009276956319809,0.6983558535575867,-2.566396951675415,0.027272582054138184
0.0,0.002623306,0.019100847,0,-38.33734893798828,5.720091342926025,-10.913772583007812,0.10116057097911835,0.09177481383085251,0.0670468807220459,1.1600861549377441,0.876593828201294,-3.1201117038726807
0.0,0.0033317357,0.022908473,0,-38.337860107421875,5.719099998474121,-10.91290283203125,0.07395965605974197,0.03840864822268486,0.06168236956000328,0.6084126234054565,2.4739792346954346,-0.9647634029388428
0.0,0.0033317357,0.022908473,0,-38.33802032470703,5.718044281005859,-10.91204833984375,0.0661143809556961,-0.08455745875835419,0.0780113935470581,-2.255897283554077,-2.0558786392211914,0.8965277075767517
0.0,0.0033317357,0.022908473,0,-38.338375091552734,5.717349529266357,-10.911285400390625,0.0782964825630188,-0.04434897378087044,0.05984028801321983,0.625928521156311,-0.03477310389280319,-1.5624995231628418
0.0,0.0033317357,0.022908473,0,-38.33869552612305,5.716392993927002,-10.910537719726562,0.06955274939537048,-0.05308373644948006,0.05473020300269127,-0.6785715818405151,-0.16044503450393677,-0.5804076194763184
0.0,0.0033317357,0.022908473,0,-38.33906555175781,5.715661525726318,-10.909927368164062,0.056308895349502563,-0.007979873567819595,0.07007677108049393,-1.2425323724746704,1.0955398082733154,1.7591296434402466
0.0,0.0033317357,0.022908473,0,-38.33952331542969,5.7147650718688965,-10.909347534179688,0.09803453087806702,0.009154858067631721,0.056599415838718414,0.9509764909744263,0.7199683785438538,-1.3168752193450928
0.0,0.0033317357,0.022908473,0,-38.340023040771484,5.713890075683594,-10.908828735351562,0.07419569790363312,0.003489231923595071,0.034701600670814514,0.3766160011291504,0.3631410002708435,-2.238943338394165
0.0,0.0033317357,0.022908473,0,-38.34073257446289,5.712932109832764,-10.908294677734375,0.004870422184467316,-0.049241092056035995,0.034926529973745346,0.31789207458496094,2.0081732273101807,-0.5216531753540039
0.0,0.0033317357,0.022908473,0,-38.341270446777344,5.712349891662598,-10.907806396484375,0.005646606907248497,-0.07982185482978821,0.06753499805927277,0.8334494233131409,-1.2089256048202515,3.0921337604522705
0.0,0.0033317357,0.022908473,0,-38.341827392578125,5.7118353843688965,-10.907394409179688,-0.01181777659803629,-0.049942489713430405,0.03307932987809181,0.4411958158016205,-1.0239663124084473,-3.148221969604492
0.0,0.0026210297,0.019088611,0,-38.342716217041016,5.711334705352783,-10.906951904296875,-0.07064414769411087,-0.041405633091926575,0.0019671632908284664,2.2472105026245117,0.3332950472831726,-3.1253647804260254
0.0,0.0026210297,0.019088611,0,-38.34334182739258,5.71064567565918,-10.906585693359375,-0.10179910808801651,-0.055848948657512665,-0.009694754146039486,0.1828366219997406,4.17919397354126,-1.6812772750854492
0.0,0.0026210297,0.019088611,0,-38.344451904296875,5.709755897521973,-10.906219482421875,-0.09864239394664764,-0.1341172605752945,0.025979885831475258,-1.264771819114685,-0.8049145340919495,2.9702157974243164
0.0,0.0026210297,0.019088611,0,-38.345462799072266,5.709461688995361,-10.905990600585938,-0.04335438460111618,-0.08843383938074112,0.018784794956445694,0.4255611300468445,-1.680693507194519,-0.1637750118970871
0.0,0.0026210297,0.019088611,0,-38.34663009643555,5.709012985229492,-10.905746459960938,-0.033292561769485474,-0.05150087922811508,-0.00545676052570343,1.3754916191101074,-0.6908965110778809,-2.0942938327789307
0.0,0.0026210297,0.019088611,0,-38.347599029541016,5.70862340927124,-10.905548095703125,-0.005999196320772171,0.0029312390834093094,-0.0034673092886805534,1.4595832824707031,2.825526237487793,0.3957522511482239
0.0,0.0026210297,0.019088611,0,-38.34858703613281,5.708080768585205,-10.9052734375,-0.02175476774573326,-0.04917985200881958,-0.0018350454047322273,-1.831176519393921,-0.13096152245998383,-0.24457170069217682
0.0,0.0026210297,0.019088611,0,-38.3494873046875,5.708124160766602,-10.905166625976562,-0.01994442194700241,-0.015352332033216953,0.0004035254823975265,-2.7632510662078857,-3.1806840896606445,0.713223397731781
0.0,0.0026210297,0.019088611,0,-38.350337982177734,5.707944869995117,-10.904983520507812,0.011254195123910904,0.057915784418582916,-0.030005382373929024,0.8673232197761536,0.032156892120838165,-2.564056873321533
0.0,0.0026210297,0.019088611,0,-38.35115432739258,5.707660675048828,-10.904891967773438,0.014568161219358444,0.09233412146568298,-7.195863872766495e-06,-0.42610618472099304,3.2681884765625,2.974705219268799
0.0,0.0029723945,0.020977125,0,-38.35209655761719,5.707211494445801,-10.904800415039062,0.05587446317076683,0.037050358951091766,0.012768857181072235,1.512717366218567,0.6931884288787842,0.8253066539764404
0.0,0.0029723945,0.020977125,0,-38.35312271118164,5.7071123123168945,-10.904754638671875,0.01880721002817154,-0.03990450128912926,0.00994768738746643,-1.4802247285842896,-4.781132698059082,-0.4871915280818939
0.0,0.0029723945,0.020977125,0,-38.35425567626953,5.707125663757324,-10.904739379882812,-0.03799089416861534,-0.010342521592974663,-0.04086033254861832,0.2324867993593216,-2.752786159515381,-4.726522922515869
0.0,0.0029723945,0.020977125,0,-38.35533905029297,5.707179069519043,-10.904617309570312,-0.07973642647266388,0.039707668125629425,-0.04702351242303848,0.06038773059844971,2.778883695602417,-0.49969467520713806
0.0,0.0029723945,0.020977125,0,-38.3563117980957,5.707006454467773,-10.904647827148438,-0.05743907019495964,0.02134689874947071,0.009868556633591652,0.47812947630882263,3.098238229751587,5.3763041496276855
0.0,0.0029723945,0.020977125,0,-38.357154846191406,5.707028388977051,-10.904617309570312,0.02070888876914978,-0.020573144778609276,0.02709311991930008,-0.5547798275947571,-1.6510703563690186,1.5009489059448242
0.0,0.0029723945,0.020977125,0,-38.358123779296875,5.707095146179199,-10.904632568359375,0.07703661173582077,0.019444424659013748,0.004471791908144951,1.7144746780395508,-0.47266072034835815,-2.0597710609436035
0.0,0.0029723945,0.020977125,0,-38.359214782714844,5.706934452056885,-10.904510498046875,0.07049821317195892,-0.006738301832228899,-0.024318603798747063,0.30079782009124756,-0.41703763604164124,-3.024521827697754
0.0,0.0029723945,0.020977125,0,-38.360233306884766,5.706928253173828,-10.90447998046875,0.01830257475376129,-0.0025041289627552032,-0.008577258326113224,-3.0562708377838135,-1.2702171802520752,1.6656213998794556
0.0,0.0029723945,0.020977125,0,-38.36124801635742,5.706972122192383,-10.904403686523438,-0.007419317960739136,0.030224131420254707,-0.02759862132370472,-1.5139086246490479,-1.1896589994430542,-1.6617238521575928
0.0,0.0024526604,0.018183649,0,-38.36210632324219,5.70688009262085,-10.904388427734375,-0.0003169402480125427,0.08073074370622635,-0.01179760042577982,1.2535039186477661,2.90867018699646,1.6853694915771484
0.0,0.0024526604,0.018183649,0,-38.362876892089844,5.706576347351074,-10.904296875,0.004786612465977669,0.040370747447013855,-0.0019593476317822933,0.5805653929710388,2.2457101345062256,0.6048260927200317
0.0,0.0024526604,0.018183649,0,-38.36366271972656,5.706484317779541,-10.904266357421875,0.009699385613203049,-0.04508426785469055,0.02963610179722309,0.8464365601539612,-2.4548470973968506,2.7695491313934326
0.0,0.0024526604,0.018183649,0,-38.364906311035156,5.7059783935546875,-10.904205322265625,-0.02677244134247303,-0.05951912701129913,-0.015191089361906052,-0.06753759831190109,-3.165271282196045,-4.367863655090332
0.0,0.0024526604,0.018183649,0,-38.36611557006836,5.705657005310059,-10.904129028320312,-0.08273259550333023,-0.019516993314027786,-0.046332210302352905,0.9031988382339478,-0.8177263140678406,-2.802882432937622
0.0,0.0024526604,0.018183649,0,-38.367286682128906,5.704943656921387,-10.904083251953125,-0.09345531463623047,-0.0062021007761359215,-0.031277842819690704,0.20183897018432617,3.945242166519165,1.3353474140167236
0.0,0.0024526604,0.018183649,0,-38.36836624145508,5.704351902008057,-10.904083251953125,-0.07108655571937561,-0.0424983948469162,0.012013927102088928,-2.5718393325805664,0.09825783967971802,4.043085098266602
0.0,0.0024526604,0.018183649,0,-38.3690185546875,5.704097270965576,-10.904159545898438,0.03041786327958107,-0.010133135132491589,0.012492109090089798,1.2168747186660767,-0.7284782528877258,0.20507128536701202
0.0,0.0024526604,0.018183649,0,-38.36985778808594,5.703629970550537,-10.904159545898438,0.056459926068782806,-0.005186126567423344,-0.010036703199148178,0.99210524559021,-0.033301450312137604,-2.2487123012542725
0.0,0.0024526604,0.018183649,0,-38.370704650878906,5.70330810546875,-10.9041748046875,0.04233037680387497,-0.018440814688801765,-0.0011759288609027863,-0.38377344608306885,-0.7083740234375,0.8429372906684875
0.0,0.0025781135,0.018857943,0,-38.37139892578125,5.7029900550842285,-10.904190063476562,0.00981064885854721,-0.03278866037726402,-0.00949383806437254,-3.771156072616577,-1.9901851415634155,-0.8196966648101807
0.0,0.0025781135,0.018857943,0,-38.37213897705078,5.702818393707275,-10.904251098632812,0.017873581498861313,0.01691851019859314,0.011583929881453514,0.08299872279167175,0.9918723106384277,2.3381645679473877
0.0,0.0025781135,0.018857943,0,-38.37282943725586,5.702526092529297,-10.904342651367188,0.052641816437244415,0.06911417096853256,-0.01782688871026039,1.8640825748443604,2.531987190246582,-2.7979936599731445
0.0,0.0025781135,0.018857943,0,-38.373497009277344,5.702082633972168,-10.904342651367188,0.03967989236116409,0.017446212470531464,0.02493833750486374,-0.24012422561645508,2.057115077972412,3.80238676071167
0.0,0.0025781135,0.018857943,0,-38.37417221069336,5.70168924331665,-10.904403686523438,0.04493974149227142,-0.0624794103205204,0.024039946496486664,0.07742581516504288,-2.550558090209961,-0.4791862666606903
0.0,0.0025781135,0.018857943,0,-38.374942779541016,5.701639652252197,-10.9044189453125,0.0005916021764278412,-0.07407665252685547,0.024797914549708366,-1.6412270069122314,-3.606114387512207,0.26582279801368713
0.0,0.0025781135,0.018857943,0,-38.375797271728516,5.7015380859375,-10.90460205078125,0.0005753152072429657,0.025174621492624283,-0.03800375387072563,2.700650215148926,2.317031145095825,-5.766770362854004
0.0,0.0025781135,0.018857943,0,-38.37648391723633,5.701208114624023,-10.904708862304688,-0.0425906702876091,-0.007207455113530159,-0.005878863390535116,-0.25989508628845215,1.8581429719924927,2.9053049087524414
0.0,0.0025781135,0.018857943,0,-38.37693786621094,5.700865268707275,-10.904922485351562,-0.010367538779973984,-0.028153415769338608,0.012172459624707699,0.9282469749450684,1.9090535640716553,1.5100594758987427
0.0,0.0025781135,0.018857943,0,-38.37747573852539,5.70055627822876,-10.905105590820312,0.009193306788802147,-0.10972414165735245,0.015573449432849884,-0.48918798565864563,-2.65684175491333,-0.06154254078865051
0.0,0.0031110283,0.021722242,0,-38.3781852722168,5.700234889984131,-10.905380249023438,0.006280137225985527,-0.07243652641773224,-0.022130705416202545,-0.04504752904176712,-0.8728750944137573,-3.459650993347168
0.0,0.0031110283,0.021722242,0,-38.379024505615234,5.699758529663086,-10.905487060546875,-0.021584585309028625,-0.06681253761053085,-0.012837866321206093,-0.04477354884147644,0.9042069911956787,0.9238763451576233
0.0,0.0031110283,0.021722242,0,-38.37941360473633,5.699369430541992,-10.905776977539062,0.03504081070423126,-0.02409334108233452,0.025773681700229645,0.37539228796958923,2.109466791152954,3.945490837097168
0.0,0.0031110283,0.021722242,0,-38.38005447387695,5.698680877685547,-10.905960083007812,0.08376994729042053,-0.054436732083559036,0.018555646762251854,0.5278501510620117,-1.3678789138793945,-0.8891850709915161
0.0,0.0031110283,0.021722242,0,-38.38075637817383,5.698192119598389,-10.906204223632812,0.07546680420637131,-0.02313271164894104,-0.0193040631711483,-0.4724213480949402,-1.2535059452056885,-3.510443925857544
0.0,0.0031110283,0.021722242,0,-38.38164520263672,5.697466850280762,-10.906387329101562,0.024960527196526527,-0.019606463611125946,-0.03323690593242645,1.380972146987915,2.185474157333374,-1.4441606998443604
0.0,0.0031110283,0.021722242,0,-38.38209533691406,5.696915626525879,-10.906692504882812,-0.006662548519670963,-0.04663952440023422,0.0176827572286129,-0.5298235416412354,0.6914893984794617,4.896547794342041
0.0,0.0031110283,0.021722242,0,-38.3824348449707,5.696441650390625,-10.907089233398438,0.05862586572766304,-0.051194462925195694,0.010537265799939632,1.1235827207565308,-1.9132887125015259,-0.6829442977905273
0.0,0.0031110283,0.021722242,0,-38.38312911987305,5.696141719818115,-10.907424926757812,0.0029590120539069176,-0.018357425928115845,-0.02161513827741146,1.077599287033081,-1.9696799516677856,-2.8410980701446533
0.0,0.0031110283,0.021722242,0,-38.38378143310547,5.695619106292725,-10.907806396484375,-0.054215457290410995,-0.00909074954688549,-0.04829788953065872,2.6255228519439697,2.3890841007232666,-2.722156286239624
0.0,0.0026514584,0.01925216,0,-38.38429260253906,5.695035457611084,-10.908111572265625,-0.13125446438789368,-0.06786518543958664,-0.023162012919783592,-2.0740156173706055,0.3832056522369385,2.141685724258423
0.0,0.0026514584,0.01925216,0,-38.38434982299805,5.694793224334717,-10.908584594726562,-0.05189559608697891,-0.05231226608157158,-0.02697502262890339,-0.594580888748169,-0.860022783279419,-0.26057252287864685
0.0,0.0026514584,0.01925216,0,-38.38462448120117,5.694462776184082,-10.908981323242188,-0.008229415863752365,-0.043210528790950775,-0.02944110333919525,2.3163106441497803,-0.23788954317569733,-0.20181730389595032
0.0,0.0026514584,0.01925216,0,-38.38483810424805,5.6941304206848145,-10.909408569335938,0.026992250233888626,-0.02158045768737793,-0.02639930322766304,2.6939306259155273,1.9222941398620605,0.30195847153663635
0.0,0.0026514584,0.01925216,0,-38.385353088378906,5.693688869476318,-10.909744262695312,-0.0211385115981102,-0.09643101692199707,-0.02569102682173252,-2.933075428009033,-1.7306338548660278,-0.2734403908252716
0.0,0.0026514584,0.01925216,0,-38.38552474975586,5.693746089935303,-10.910186767578125,-0.0010486296378076077,-0.03351470082998276,-0.03470058739185333,-3.282569408416748,-2.0155880451202393,-0.4496142268180847
0.0,0.0026514584,0.01925216,0,-38.385616302490234,5.693884372711182,-10.91058349609375,0.04394758492708206,0.05706438794732094,-0.05129490792751312,1.9503146409988403,2.0490379333496094,-1.3088788986206055
0.0,0.0026514584,0.01925216,0,-38.38566589355469,5.6937713623046875,-10.9110107421875,0.07587635517120361,0.041306037455797195,-0.017342478036880493,0.9947429299354553,2.6891894340515137,3.135997772216797
0.0,0.0026514584,0.01925216,0,-38.38582229614258,5.693603992462158,-10.91143798828125,0.07920940965414047,-0.040263574570417404,-0.004871894605457783,0.001627183286473155,-1.672204613685608,0.8718729019165039
0.0,0.0026514584,0.01925216,0,-38.38595199584961,5.693713188171387,-10.911880493164062,0.04331640526652336,-0.07309354096651077,-0.02072846330702305,-3.444422483444214,-4.612295627593994,-1.5133241415023804
0.0,0.0029014475,0.0205958,0,-38.38618850708008,5.693883895874023,-10.912338256835938,0.01656433753669262,0.004518456757068634,-0.059271637350320816,0.23139645159244537,-0.6296053528785706,-3.3935201168060303
0.0,0.0029014475,0.0205958,0,-38.386329650878906,5.693911552429199,-10.912704467773438,0.00590727012604475,0.0581209659576416,-0.05176730826497078,0.8446052670478821,1.6978905200958252,0.9389342665672302
0.0,0.0029014475,0.0205958,0,-38.386322021484375,5.693310737609863,-10.913345336914062,0.0411490797996521,0.0417955182492733,-0.00016203871928155422,0.7954896092414856,3.054518461227417,4.907926559448242
0.0,0.0029014475,0.0205958,0,-38.386417388916016,5.692742347717285,-10.913894653320312,0.08002127707004547,-0.04028183966875076,-0.024608345702290535,-0.7524712085723877,-2.174924612045288,-2.8035333156585693
0.0,0.0029014475,0.0205958,0,-38.386592864990234,5.692407608032227,-10.914505004882812,0.09410549700260162,-0.027974039316177368,-0.034351639449596405,0.8333280682563782,-0.9216238856315613,-0.858045756816864
0.0,0.0029014475,0.0205958,0,-38.386810302734375,5.691903114318848,-10.91497802734375,0.06855005770921707,-0.07031216472387314,-0.04185853153467178,-1.9589498043060303,-1.559482216835022,-0.8853505253791809
0.0,0.0029014475,0.0205958,0,-38.386878967285156,5.691568851470947,-10.915618896484375,0.10874887555837631,-0.02265300042927265,0.0021232301369309425,-1.3287193775177002,2.0317294597625732,4.482451915740967
0.0,0.0029014475,0.0205958,0,-38.38751983642578,5.691317558288574,-10.91619873046875,0.1591615229845047,-0.01746826432645321,-0.029971463605761528,0.7980321645736694,-0.2075859010219574,-3.1995575428009033
0.0,0.0029014475,0.0205958,0,-38.387847900390625,5.690993309020996,-10.91668701171875,0.1776176542043686,-0.009233744814991951,-0.023814890533685684,-0.4190264344215393,1.557967185974121,0.5345335006713867
0.0,0.0029014475,0.0205958,0,-38.388675689697266,5.690568923950195,-10.91717529296875,0.13560771942138672,-0.025302942842245102,-0.022621046751737595,-1.0439465045928955,1.3158680200576782,0.010339375585317612
0.0,0.0033430792,0.022969441,0,-38.38926696777344,5.690303802490234,-10.917739868164062,0.11883407831192017,-0.058817025274038315,0.01354716345667839,-1.2303434610366821,-2.560790777206421,3.573742389678955
0.0,0.0033430792,0.022969441,0,-38.390140533447266,5.689868927001953,-10.91827392578125,0.1516905426979065,-0.0024146996438503265,-0.02510809525847435,1.8757033348083496,0.6587079167366028,-3.5850729942321777
0.0,0.0033430792,0.022969441,0,-38.39126205444336,5.689445972442627,-10.918746948242188,0.09019864350557327,-0.014123896136879921,-0.010489791631698608,1.5956310033798218,0.26569631695747375,1.462909460067749
0.0,0.0033430792,0.022969441,0,-38.39225387573242,5.688831806182861,-10.919235229492188,0.013424240052700043,-0.05723443254828453,-0.01631029322743416,-1.6046873331069946,0.5338119864463806,-0.8451964855194092
0.0,0.0033430792,0.022969441,0,-38.39303970336914,5.688662052154541,-10.919708251953125,-0.013030566275119781,-0.05976127088069916,-0.01249905675649643,-2.582409143447876,-1.6980018615722656,0.46921148896217346
0.0,0.0033430792,0.022969441,0,-38.393890380859375,5.688383102416992,-10.920196533203125,0.04586135596036911,0.002856990322470665,-0.05256294831633568,3.708641767501831,1.5139875411987305,-3.7302167415618896
0.0,0.0033430792,0.022969441,0,-38.394962310791016,5.687921047210693,-10.920639038085938,0.010404234752058983,-0.03674217313528061,-0.027005372568964958,4.020331859588623,2.1217727661132812,2.1868646144866943
0.0,0.0033430792,0.022969441,0,-38.39565658569336,5.687591552734375,-10.921188354492188,0.007832195609807968,-0.09054900705814362,-0.003965484444051981,-0.9741477966308594,-1.1683050394058228,2.047539472579956
0.0,0.0033430792,0.022969441,0,-38.39644241333008,5.687500953674316,-10.921676635742188,-0.04238104075193405,-0.09834243357181549,-0.02939021587371826,-5.213000774383545,-2.7617125511169434,-2.4162774085998535
0.0,0.0033430792,0.022969441,0,-38.397186279296875,5.687757968902588,-10.922225952148438,0.028511090204119682,0.018640168011188507,-0.0604858472943306,1.095365047454834,0.36842575669288635,-2.445577383041382
0.0,0.0024771844,0.018315462,0,-38.39807891845703,5.687565803527832,-10.922714233398438,0.09339027106761932,0.04853267967700958,-0.05988531559705734,6.019074440002441,4.354012966156006,-0.007401886861771345
0.0,0.0024771844,0.018315462,0,-38.39878463745117,5.687392711639404,-10.923294067382812,0.07280686497688293,-0.02193469926714897,-0.01535658910870552,-1.0871999263763428,0.5088008642196655,4.02529239654541
0.0,0.0024771844,0.018315462,0,-38.39934158325195,5.6876420974731445,-10.923904418945312,0.06421930342912674,-0.07508645951747894,-0.03471292182803154,-3.7222254276275635,-2.934919595718384,-2.0434987545013428
0.0,0.0024771844,0.018315462,0,-38.39970397949219,5.688344478607178,-10.92449951171875,0.10246516019105911,-0.006875842809677124,-0.05107945576310158,-1.6838676929473877,-2.637207508087158,-1.1256850957870483
0.0,0.0024771844,0.018315462,0,-38.40025329589844,5.688719749450684,-10.925125122070312,0.14502224326133728,0.050934817641973495,-0.07743164151906967,3.8029606342315674,1.998609185218811,-2.453679084777832
0.0,0.0024771844,0.018315462,0,-38.40073013305664,5.689279556274414,-10.925811767578125,0.09029597789049149,0.018612481653690338,-0.04557006061077118,-0.8220023512840271,-0.41102948784828186,3.0154502391815186
0.0,0.0024771844,0.018315462,0,-38.401039123535156,5.689900875091553,-10.92657470703125,0.08818890154361725,0.023730533197522163,-0.07591959834098816,-2.2083818912506104,-0.3135106563568115,-3.009606122970581
0.0,0.0024771844,0.018315462,0,-38.401458740234375,5.690639495849609,-10.92724609375,0.07789826393127441,0.04012446850538254,-0.08954145014286041,0.48514047265052795,-0.03240238130092621,-1.3152090311050415
0.0,0.0024771844,0.018315462,0,-38.401832580566406,5.691137313842773,-10.928009033203125,0.11848896741867065,0.0242178812623024,-0.06681390106678009,3.9800243377685547,2.9959819316864014,2.0576717853546143
0.0,0.0024771844,0.018315462,0,-38.40234375,5.691562652587891,-10.928695678710938,0.10884681344032288,-0.09482494741678238,-0.03729641065001488,1.1297248601913452,-1.5561513900756836,2.4581570625305176
0.0,0.0033965125,0.023256624,0,-38.40251541137695,5.6922993659973145,-10.929458618164062,0.11235205829143524,-0.08948153257369995,-0.058777354657649994,-4.127912521362305,-1.902681589126587,-2.0560250282287598
0.0,0.0033965125,0.023256624,0,-38.402740478515625,5.692971229553223,-10.930068969726562,0.14336799085140228,-0.03953699395060539,-0.09094802290201187,-0.9771729111671448,0.9430405497550964,-3.070159912109375
0.0,0.0033965125,0.023256624,0,-38.402915954589844,5.693482875823975,-10.930801391601562,0.2041073441505432,-0.006836222484707832,-0.05428830906748772,2.245191812515259,2.677924633026123,3.6435790061950684
0.0,0.0033965125,0.023256624,0,-38.403350830078125,5.693935394287109,-10.93157958984375,0.21160845458507538,-0.0362795926630497,-0.06487077474594116,2.17287015914917,-0.8503958582878113,-1.1656925678253174
0.0,0.0033965125,0.023256624,0,-38.40371322631836,5.694538593292236,-10.932327270507812,0.14820876717567444,-0.03126230835914612,-0.08081534504890442,0.4313092827796936,-0.965682864189148,-1.529367446899414
0.0,0.0033965125,0.023256624,0,-38.404197692871094,5.695101261138916,-10.933029174804688,0.03376993164420128,-0.021348003298044205,-0.0873984545469284,-1.301578402519226,-1.1397337913513184,-0.5837309956550598
0.0,0.0033965125,0.023256624,0,-38.40412521362305,5.695707321166992,-10.933746337890625,0.017074137926101685,-0.014630520716309547,-0.06915150582790375,-1.7069758176803589,-2.4239182472229004,1.9402127265930176
0.0,0.0033965125,0.023256624,0,-38.404151916503906,5.696187496185303,-10.934463500976562,0.0880066305398941,0.029451671987771988,-0.10824404656887054,4.607424259185791,0.937321126461029,-3.767214059829712
0.0,0.0033965125,0.023256624,0,-38.40447235107422,5.696531295776367,-10.935134887695312,0.03350570425391197,-0.01736239343881607,-0.09336530417203903,1.5420324802398682,1.1887989044189453,1.1963204145431519
0.0,0.0033965125,0.023256624,0,-38.404273986816406,5.697041988372803,-10.935882568359375,0.02573796734213829,-0.06150510907173157,-0.08801647275686264,-2.695050001144409,0.8264831304550171,0.2540402114391327
0.0,0.0027489865,0.019776357,0,-38.40406036376953,5.69783353805542,-10.936553955078125,0.054906804114580154,-0.0598343089222908,-0.09488411247730255,-2.205610990524292,-1.7278085947036743,-0.6155045628547668
0.0,0.0027489865,0.019776357,0,-38.40363693237305,5.6987996101379395,-10.937210083007812,0.13361778855323792,-0.021029938012361526,-0.08386150002479553,2.5656819343566895,0.8113659620285034,1.2193783521652222
0.0,0.0027489865,0.019776357,0,-38.40336227416992,5.699592113494873,-10.9378662109375,0.11015783250331879,-0.023657890036702156,-0.08273129910230637,-2.5953521728515625,0.9043111801147461,0.026630107313394547
0.0,0.0027489865,0.019776357,0,-38.40272903442383,5.700074195861816,-10.938339233398438,0.1400311291217804,-0.00608650129288435,-0.08258455991744995,-3.861809492111206,-0.4446566104888916,0.03676470369100571
0.0,0.0027489865,0.019776357,0,-38.402374267578125,5.700462818145752,-10.938735961914062,0.20823827385902405,0.019345220178365707,-0.08381607383489609,3.880251884460449,1.2449229955673218,-0.09642191231250763
0.0,0.0027489865,0.019776357,0,-38.402034759521484,5.700758457183838,-10.939117431640625,0.1569923609495163,-0.010129306465387344,-0.04299794137477875,-1.2679566144943237,0.764146625995636,3.8758230209350586
0.0,0.0027489865,0.019776357,0,-38.4015998840332,5.70112419128418,-10.939605712890625,0.1469005048274994,-0.04636499285697937,-0.0500263050198555,-3.7318828105926514,-1.7067893743515015,-0.8816550374031067
0.0,0.0027489865,0.019776357,0,-38.401241302490234,5.701616287231445,-10.939956665039062,0.1550595909357071,-0.006631110794842243,-0.08247880637645721,1.356284260749817,0.04753777012228966,-3.029932975769043
0.0,0.0027489865,0.019776357,0,-38.40108108520508,5.701983451843262,-10.9403076171875,0.1268000304698944,0.02839854545891285,-0.06464237719774246,2.5414183139801025,2.9360179901123047,1.841448426246643
0.0,0.0027489865,0.019776357,0,-38.400848388671875,5.7022576332092285,-10.940673828125,0.09353352338075638,-0.05746840685606003,-0.02674161270260811,-0.3224639296531677,-1.009384036064148,3.3436641693115234
0.0,0.00310827,0.021707417,0,-38.40054702758789,5.702822685241699,-10.94110107421875,0.06199243664741516,-0.040143854916095734,-0.058761924505233765,-2.5155797004699707,-0.9671096801757812,-3.0590288639068604
0.0,0.00310827,0.021707417,0,-38.400230407714844,5.703545570373535,-10.941299438476562,0.046433862298727036,-0.005138079635798931,-0.09509491175413132,-0.21419227123260498,0.3310173749923706,-3.4630749225616455
0.0,0.00310827,0.021707417,0,-38.39982223510742,5.70397424697876,-10.941574096679688,0.090931236743927,0.01041565090417862,-0.04496963694691658,3.5057599544525146,2.738671064376831,4.916650772094727
0.0,0.00310827,0.021707417,0,-38.39982604980469,5.704440116882324,-10.941864013671875,0.08875349909067154,-0.0683736652135849,-0.04045969247817993,0.6144034266471863,-0.1880565583705902,-0.011060748249292374
0.0,0.00310827,0.021707417,0,-38.40009307861328,5.705344200134277,-10.942214965820312,0.09147069603204727,-0.06809277832508087,-0.04905679449439049,-0.9173785448074341,-1.6443352699279785,-0.7695190906524658
0.0,0.00310827,0.021707417,0,-38.40037536621094,5.706162452697754,-10.942459106445312,0.0444406196475029,-0.055212654173374176,-0.06531783193349838,-3.8591814041137695,0.5935516357421875,-1.5995982885360718
0.0,0.00310827,0.021707417,0,-38.40062713623047,5.707204341888428,-10.942825317382812,0.1418352872133255,0.01001480221748352,-0.02381347119808197,2.742673873901367,2.1208410263061523,4.350142478942871
0.0,0.00310827,0.021707417,0,-38.40129852294922,5.708045959472656,-10.943161010742188,0.16888457536697388,-0.026324603706598282,-0.061384156346321106,3.55989146232605,-0.7026058435440063,-3.9092092514038086
0.0,0.00310827,0.021707417,0,-38.40192413330078,5.709036827087402,-10.943466186523438,0.07610459625720978,-0.021856285631656647,-0.04747456684708595,-0.48131608963012695,0.6103484034538269,1.3655023574829102
0.0,0.00310827,0.021707417,0,-38.402381896972656,5.710130214691162,-10.943817138671875,0.026343028992414474,-0.015226911753416061,-0.051802489906549454,-2.554962396621704,-1.143181562423706,-0.35913756489753723
0.0,0.0024468738,0.018152546,0,-38.40251541137695,5.71127986907959,-10.944168090820312,0.05355234816670418,0.04377368092536926,-0.04752210155129433,-1.8849186897277832,-1.673306941986084,0.782487154006958
0.0,0.0024468738,0.018152546,0,-38.40293502807617,5.712345600128174,-10.944549560546875,0.1372159719467163,0.0836837962269783,-0.08603306859731674,6.302209854125977,-1.0424156188964844,-3.6369707584381104
0.0,0.0024468738,0.018152546,0,-38.40346145629883,5.713298320770264,-10.94488525390625,0.03357262536883354,0.07302070409059525,-0.07683128118515015,-1.8593522310256958,0.6542847752571106,0.7852028608322144
0.0,0.0024468738,0.018152546,0,-38.40360641479492,5.714216232299805,-10.945297241210938,0.0542733408510685,0.06625141948461533,-0.07655267417430878,-2.6690616607666016,0.7363691926002502,-0.03751002252101898
0.0,0.0024468738,0.018152546,0,-38.40382385253906,5.71451997756958,-10.945663452148438,0.13994251191616058,0.022866591811180115,-0.08900343626737595,2.553940773010254,-1.9566161632537842,-1.3525294065475464
0.0,0.0024468738,0.018152546,0,-38.40413284301758,5.714899063110352,-10.946151733398438,0.1493225395679474,-0.010241430252790451,-0.07102574408054352,2.6123597621917725,0.6844826340675354,1.605758547782898
0.0,0.0024468738,0.018152546,0,-38.4041862487793,5.715252876281738,-10.946640014648438,0.09285753965377808,-0.06244093179702759,-0.08777354657649994,-6.219488620758057,-0.4891839623451233,-1.9184471368789673
0.0,0.0024468738,0.018152546,0,-38.40410614013672,5.715728759765625,-10.946945190429688,0.20255044102668762,-0.020007504150271416,-0.1066211611032486,2.9097402095794678,0.09908431768417358,-1.731558084487915
0.0,0.0024468738,0.018152546,0,-38.404415130615234,5.716045379638672,-10.947265625,0.20929299294948578,-0.01811552792787552,-0.08184938877820969,2.5085620880126953,3.1483042240142822,2.3276147842407227
0.0,0.0024468738,0.018152546,0,-38.40446472167969,5.716259479522705,-10.94769287109375,0.20182210206985474,-0.08810760825872421,-0.04987531900405884,-0.8029076457023621,-0.730210542678833,2.8522286415100098
0.0,0.00402882,0.026654992,0,-38.40494155883789,5.716724395751953,-10.948165893554688,0.14902809262275696,-0.06354544311761856,-0.1172226071357727,-2.6777150630950928,-2.5200753211975098,-6.512930870056152
0.0,0.00402882,0.026654992,0,-38.40534973144531,5.717197418212891,-10.948532104492188,0.09377395361661911,0.002582977991551161,-0.09994843602180481,0.4554394483566284,-0.8258412480354309,2.0282719135284424
0.0,0.00402882,0.026654992,0,-38.406044006347656,5.717565536499023,-10.949020385742188,0.09845086187124252,0.03730654716491699,-0.0832492783665657,2.5155632495880127,0.24605637788772583,1.7803162336349487
0.0,0.00402882,0.026654992,0,-38.40693283081055,5.718020915985107,-10.949386596679688,0.041795846074819565,0.04959280788898468,-0.12401986122131348,0.8239636421203613,0.26423633098602295,-4.090279579162598
0.0,0.00402882,0.026654992,0,-38.40788650512695,5.718393325805664,-10.949859619140625,0.003316134214401245,0.01729373261332512,-0.1430949568748474,0.6184492111206055,0.6327205896377563,-2.1439731121063232
0.0,0.00402882,0.026654992,0,-38.40877914428711,5.718877792358398,-10.950241088867188,-0.03348938375711441,-0.004426237195730209,-0.10040182620286942,-0.3909483551979065,-0.1435595601797104,4.114357948303223
0.0,0.00402882,0.026654992,0,-38.40946578979492,5.719518184661865,-10.9508056640625,0.03737908974289894,-0.007766088470816612,-0.10501197725534439,1.6281508207321167,-2.141336679458618,-0.35391077399253845
0.0,0.00402882,0.026654992,0,-38.41035842895508,5.720090389251709,-10.9510498046875,-0.0017605163156986237,0.0034687058068811893,-0.1480528861284256,-2.508638858795166,0.7435824871063232,-4.326389789581299
0.0,0.00402882,0.026654992,0,-38.41101837158203,5.720754623413086,-10.951385498046875,0.0149549450725317,0.04643956571817398,-0.13014285266399384,0.4134142994880676,0.6487825512886047,1.9450342655181885
0.0,0.00402882,0.026654992,0,-38.41165542602539,5.72123908996582,-10.951675415039062,0.07124019414186478,0.04058025777339935,-0.11625651270151138,1.475085973739624,0.2512877881526947,1.3518283367156982
0.0,0.0028766317,0.020462422,0,-38.41213607788086,5.721776485443115,-10.952011108398438,0.12440662831068039,0.04103579372167587,-0.12245211005210876,-0.6342916488647461,0.6471465229988098,-0.65629643201828
0.0,0.0028766317,0.020462422,0,-38.41291046142578,5.7222514152526855,-10.9522705078125,0.07466717809438705,-0.01095445454120636,-0.12737450003623962,0.8753549456596375,-0.9813600778579712,-0.7444522976875305
0.0,0.0028766317,0.020462422,0,-38.41315460205078,5.722871780395508,-10.952606201171875,0.036955974996089935,0.017342206090688705,-0.10101326555013657,-6.045860290527344,0.40129050612449646,2.7298073768615723
0.0,0.0028766317,0.020462422,0,-38.412803649902344,5.7234954833984375,-10.952743530273438,0.15168726444244385,0.06507512181997299,-0.13425548374652863,2.945347547531128,0.3896799087524414,-3.1511306762695312
0.0,0.0028766317,0.020462422,0,-38.41285705566406,5.72383451461792,-10.952835083007812,0.11624185740947723,0.04530053585767746,-0.12395090609788895,2.3351080417633057,0.7593821883201599,0.8799890279769897
0.0,0.0028766317,0.020462422,0,-38.412925720214844,5.724255084991455,-10.952957153320312,0.009598728269338608,0.02538255602121353,-0.10388978570699692,-3.338718891143799,0.5982493758201599,1.839253544807434
0.0,0.0028766317,0.020462422,0,-38.412635803222656,5.724759101867676,-10.953033447265625,0.005773518234491348,0.022614959627389908,-0.09386197477579117,-3.2515618801116943,-1.074213981628418,1.0143656730651855
0.0,0.0028766317,0.020462422,0,-38.41250228881836,5.725361347198486,-10.953140258789062,0.08215836435556412,0.05894176661968231,-0.1140708476305008,4.1430439949035645,-0.8492668867111206,-1.8305531740188599
0.0,0.0028766317,0.020462422,0,-38.412620544433594,5.726101875305176,-10.953125,-0.04360557347536087,0.07670457661151886,-0.10830847918987274,-0.49249452352523804,0.5369178056716919,0.6116151213645935
0.0,0.0028766317,0.020462422,0,-38.41214370727539,5.7266130447387695,-10.953140258789062,-0.07433412224054337,0.08949126303195953,-0.11114546656608582,-2.326206922531128,1.503066062927246,-0.3109203577041626
0.0,0.003162942,0.022001263,0,-38.411685943603516,5.727110385894775,-10.95306396484375,-0.02634843811392784,0.09147065877914429,-0.10785070806741714,1.9072397947311401,0.4989912211894989,0.2954060435295105
0.0,0.003162942,0.022001263,0,-38.411170959472656,5.727477073669434,-10.953048706054688,-0.008646450936794281,0.04052019119262695,-0.0767030343413353,5.183434963226318,-0.9299059510231018,2.8736400604248047
0.0,0.003162942,0.022001263,0,-38.410343170166016,5.728109836578369,-10.9530029296875,-0.15655365586280823,-0.005097339861094952,-0.07548277080059052,-6.277774810791016,-1.0660037994384766,-0.10021920502185822
0.0,0.003162942,0.022001263,0,-38.40884780883789,5.729001522064209,-10.9530029296875,-0.05911744013428688,0.05551980063319206,-0.08195134997367859,0.32664740085601807,-0.3390912413597107,-0.3010048270225525
0.0,0.003162942,0.022001263,0,-38.40768051147461,5.729562759399414,-10.9527587890625,-0.02595769613981247,0.0854918509721756,-0.09442615509033203,0.6448730826377869,1.5318232774734497,-1.1958636045455933
0.0,0.003162942,0.022001263,0,-38.40650177001953,5.730040073394775,-10.952560424804688,0.015170373022556305,0.08150766789913177,-0.027726612985134125,3.6514387130737305,2.744014263153076,6.479781150817871
0.0,0.003162942,0.022001263,0,-38.40535354614258,5.730276584625244,-10.95233154296875,-0.015154082328081131,-0.04444060102105141,-0.02063760533928871,-1.899482011795044,0.37460893392562866,-0.08388648182153702
0.0,0.003162942,0.022001263,0,-38.4036750793457,5.731015205383301,-10.952224731445312,0.052373677492141724,-0.031176481395959854,-0.015503649599850178,-3.477858781814575,-1.1625255346298218,0.5404888987541199
0.0,0.003162942,0.022001263,0,-38.4022102355957,5.731675624847412,-10.952011108398438,0.14345590770244598,-0.04680753871798515,-0.048718180507421494,2.5634896755218506,-3.0077998638153076,-3.364187479019165
0.0,0.003162942,0.022001263,0,-38.40073776245117,5.732173442840576,-10.951828002929688,0.18137139081954956,-0.005188852548599243,0.005822414066642523,3.911792755126953,2.0844264030456543,5.529151439666748
0.0,0.003705648,0.024918102,0,-38.399417877197266,5.732528209686279,-10.951675415039062,0.1425524801015854,-0.10802135616540909,0.0023926962167024612,-0.17721988260746002,-1.3126827478408813,-0.8936792612075806
0.0,0.003705648,0.024918102,0,-38.39779281616211,5.7331695556640625,-10.95159912109375,0.13772977888584137,-0.09323295950889587,-0.023074109107255936,-4.622107028961182,-2.0889809131622314,-2.4369418621063232
0.0,0.003705648,0.024918102,0,-38.396514892578125,5.734004020690918,-10.951553344726562,0.14773625135421753,-0.017910175025463104,-0.10947546362876892,1.2490135431289673,-1.9181255102157593,-8.059056282043457
0.0,0.003705648,0.024918102,0,-38.39525604248047,5.734076023101807,-10.951309204101562,0.10790205001831055,0.06672608852386475,-0.10138094425201416,2.504746198654175,0.8890020251274109,1.3606270551681519
0.0,0.003705648,0.024918102,0,-38.3941764831543,5.734327793121338,-10.951278686523438,0.06158308684825897,0.06413697451353073,-0.08242167532444,1.8659645318984985,1.7353019714355469,1.8819142580032349
0.0,0.003705648,0.024918102,0,-38.392948150634766,5.73452091217041,-10.951248168945312,0.06834742426872253,0.0055503542535007,-0.021335165947675705,0.9127572774887085,-0.35663601756095886,5.756773948669434
0.0,0.003705648,0.024918102,0,-38.39143371582031,5.735091686248779,-10.951309204101562,0.05101516842842102,-0.040608081966638565,-0.038133490830659866,-3.485739231109619,-2.525028944015503,-1.862470030784607
0.0,0.003705648,0.024918102,0,-38.38985824584961,5.735956192016602,-10.951370239257812,0.09969529509544373,0.02110113576054573,-0.05258619040250778,-0.9359201192855835,-1.6656242609024048,-1.1156816482543945
0.0,0.003705648,0.024918102,0,-38.38871383666992,5.7365193367004395,-10.951446533203125,0.08551706373691559,0.06728266924619675,-0.1111050546169281,2.02392315864563,0.9480735063552856,-5.600401401519775
0.0,0.003705648,0.024918102,0,-38.387611389160156,5.73728609085083,-10.951553344726562,0.011963710188865662,0.12464404106140137,-0.08839810639619827,2.227792978286743,0.8837011456489563,2.6194539070129395
0.0,0.00323696,0.022399087,0,-38.3864631652832,5.7377238273620605,-10.951705932617188,-0.04994466155767441,0.08480199426412582,-0.08438962697982788,-1.0002378225326538,1.1100659370422363,0.12667402625083923
0.0,0.00323696,0.022399087,0,-38.385047912597656,5.738363265991211,-10.951919555664062,-0.03949055075645447,0.10652325302362442,-0.046795133501291275,-1.3805534839630127,1.8482950925827026,3.7213246822357178
0.0,0.00323696,0.022399087,0,-38.38360595703125,5.738869667053223,-10.952133178710938,-0.004129011183977127,0.06349456310272217,-0.06450607627630234,-2.3377132415771484,-0.789681613445282,-2.0310580730438232
0.0,0.00323696,0.022399087,0,-38.382022857666016,5.7394280433654785,-10.952377319335938,0.09232214838266373,0.10914813727140427,-0.06187479943037033,1.706587553024292,0.568157434463501,0.39780157804489136
0.0,0.00323696,0.022399087,0,-38.38075256347656,5.739926338195801,-10.952590942382812,0.12204576283693314,0.07430154085159302,-0.08999058604240417,5.081383228302002,-1.6125133037567139,-2.9131550788879395
0.0,0.00323696,0.022399087,0,-38.37965393066406,5.740239143371582,-10.952850341796875,0.030640102922916412,0.0530318059027195,-0.06961694359779358,1.8216215372085571,-0.21642406284809113,1.9351094961166382
0.0,0.00323696,0.022399087,0,-38.37833023071289,5.740621566772461,-10.953094482421875,-0.06879950314760208,0.04726853594183922,-0.057156383991241455,-3.8793249130249023,1.9015228748321533,1.0678633451461792
0.0,0.00323696,0.022399087,0,-38.3766975402832,5.740769386291504,-10.953369140625,-0.02023402601480484,-0.012058507651090622,0.001968558644875884,-1.0845508575439453,1.3419806957244873,5.512224197387695
0.0,0.00323696,0.022399087,0,-38.375022888183594,5.741101264953613,-10.95355224609375,0.03390529006719589,-0.05829257518053055,0.009067859500646591,-2.6824493408203125,-0.11074180155992508,0.4210021197795868
0.0,0.00323696,0.022399087,0,-38.373390197753906,5.741591930389404,-10.953842163085938,0.15002135932445526,-0.07321196794509888,0.011252742260694504,0.7469533085823059,-0.43334972858428955,0.07089787721633911
0.0,0.0035846734,0.024267916,0,-38.371971130371094,5.742194652557373,-10.953933715820312,0.22705595195293427,-0.06984893232584,-0.02553236484527588,0.900610089302063,-1.123429298400879,-3.67622447013855
0.0,0.0035846734,0.024267916,0,-38.370758056640625,5.742694854736328,-10.95416259765625,0.2449711561203003,-0.060758769512176514,-0.045584194362163544,3.125749349594116,0.03288736194372177,-1.9688518047332764
0.0,0.0035846734,0.024267916,0,-38.369590759277344,5.742114543914795,-10.953948974609375,0.18744826316833496,-0.09598502516746521,-0.05374151095747948,1.0458884239196777,-1.2271583080291748,-0.9416064023971558
0.0,0.0035846734,0.024267916,0,-38.36845397949219,5.741535186767578,-10.953903198242188,0.13647940754890442,-0.11456527560949326,-0.046197205781936646,1.1497857570648193,-1.354654312133789,0.7201089859008789
0.0,0.0035846734,0.024267916,0,-38.3670654296875,5.7411208152771,-10.953781127929688,0.10076867043972015,-0.11900417506694794,-0.030021268874406815,-2.0744357109069824,-2.047623872756958,1.7017362117767334
0.0,0.0035846734,0.024267916,0,-38.36569595336914,5.7407660484313965,-10.953765869140625,0.11871254444122314,-0.09727093577384949,-0.029114320874214172,-0.7126666307449341,-0.7756203413009644,0.23051388561725616
0.0,0.0035846734,0.024267916,0,-38.364234924316406,5.7405781745910645,-10.953720092773438,0.17011494934558868,-0.054870862513780594,-0.020356766879558563,0.7667379379272461,-1.3664662837982178,1.1520192623138428
0.0,0.0035846734,0.024267916,0,-38.36308670043945,5.740201473236084,-10.953750610351562,0.17245858907699585,-0.023647919297218323,-0.049500275403261185,0.9918375611305237,0.3878905773162842,-2.769972085952759
0.0,0.0035846734,0.024267916,0,-38.3619270324707,5.739987850189209,-10.953750610351562,0.14199909567832947,0.0286848321557045,-0.06428049504756927,0.6352918148040771,0.3242414593696594,-1.202547311782837
0.0,0.0035846734,0.024267916,0,-38.36098098754883,5.7396135330200195,-10.95379638671875,0.03772863745689392,0.0474015548825264,-0.11315406858921051,-2.3886208534240723,1.7959206104278564,-4.886053562164307
0.0,0.0026982278,0.019503538,0,-38.359886169433594,5.739527225494385,-10.953857421875,-0.019865699112415314,0.09527041018009186,-0.10764441639184952,-0.33527418971061707,1.3703638315200806,0.6803147792816162
0.0,0.0026982278,0.019503538,0,-38.3587532043457,5.739327430725098,-10.9539794921875,-0.08959489315748215,0.07469573616981506,-0.10210196673870087,-2.1426937580108643,0.561371922492981,0.3457193076610565
0.0,0.0026982278,0.019503538,0,-38.357269287109375,5.739081859588623,-10.954086303710938,-0.02187453955411911,0.07679890096187592,-0.030423955991864204,-0.16937851905822754,2.2124388217926025,7.054466724395752
0.0,0.0026982278,0.019503538,0,-38.355682373046875,5.738804817199707,-10.95416259765625,0.06208503991365433,-0.008113368414342403,-0.016719093546271324,-0.347059965133667,-1.3874579668045044,0.9577598571777344
0.0,0.0026982278,0.019503538,0,-38.35404968261719,5.738539695739746,-10.954360961914062,0.14849498867988586,-0.04498608782887459,0.005104776471853256,2.0495264530181885,-0.5062088370323181,1.9752674102783203
0.0,0.0026982278,0.019503538,0,-38.35249328613281,5.738380432128906,-10.954498291015625,0.1780996471643448,-0.10694125294685364,-0.024424418807029724,0.8600857853889465,-3.6167633533477783,-3.1066160202026367
0.0,0.0026982278,0.019503538,0,-38.35096740722656,5.738239288330078,-10.954742431640625,0.16122397780418396,-0.09924795478582382,-0.030093355104327202,1.2180819511413574,-1.4193726778030396,-0.46452954411506653
0.0,0.0026982278,0.019503538,0,-38.34931564331055,5.738212585449219,-10.9549560546875,0.10514412820339203,-0.07263379544019699,-0.05791426822543144,-2.7731881141662598,-0.8885459899902344,-2.6255249977111816
0.0,0.0026982278,0.019503538,0,-38.34745407104492,5.7380595207214355,-10.955245971679688,0.11187233030796051,-0.014458589255809784,-0.0678417831659317,-1.0218569040298462,0.2358248084783554,-0.736341655254364
0.0,0.0026982278,0.019503538,0,-38.345619201660156,5.737950325012207,-10.955459594726562,0.1416366994380951,0.036543216556310654,-0.09625425934791565,0.7988327145576477,0.29454222321510315,-2.633643865585327
0.0,0.003412486,0.023342477,0,-38.343994140625,5.73769998550415,-10.955764770507812,0.13658852875232697,0.05551924556493759,-0.10033868998289108,1.5329118967056274,-0.7702077031135559,-0.3150377571582794
0.0,0.003412486,0.023342477,0,-38.34238815307617,5.737581729888916,-10.956008911132812,0.14147834479808807,0.12008576840162277,-0.10216870158910751,4.309659957885742,0.4721101224422455,0.02816682681441307
0.0,0.003412486,0.023342477,0,-38.3409423828125,5.736573696136475,-10.95623779296875,0.02835199236869812,0.10203362256288528,-0.08875786513090134,-1.022657036781311,1.2528830766677856,1.0714951753616333
0.0,0.003412486,0.023342477,0,-38.339298248291016,5.735432147979736,-10.9564208984375,-0.010774239897727966,0.07356780022382736,-0.05502655357122421,0.478894978761673,1.8958210945129395,3.068934917449951
0.0,0.003412486,0.023342477,0,-38.33742141723633,5.7340240478515625,-10.9566650390625,-0.010730177164077759,-0.04362037777900696,-0.018378080800175667,-3.1046111583709717,0.1746218204498291,3.097545862197876
0.0,0.003412486,0.023342477,0,-38.335548400878906,5.732652187347412,-10.956893920898438,0.05652730166912079,-0.12347051501274109,-0.0013661463744938374,-0.873541533946991,-0.6756329536437988,1.3544349670410156
0.0,0.003412486,0.023342477,0,-38.33369827270508,5.731447696685791,-10.957138061523438,0.09076175093650818,-0.1537434309720993,-0.017454665154218674,-2.747755765914917,-1.564616084098816,-1.6674811840057373
0.0,0.003412486,0.023342477,0,-38.331993103027344,5.730360984802246,-10.957305908203125,0.1523095667362213,-0.14036056399345398,-0.053326938301324844,0.7004297375679016,-1.895066738128662,-3.3780179023742676
0.0,0.003412486,0.023342477,0,-38.330326080322266,5.7292799949646,-10.957504272460938,0.13728702068328857,-0.09574969857931137,-0.07967403531074524,-0.1185760349035263,-0.9296484589576721,-2.355637788772583
0.0,0.003412486,0.023342477,0,-38.32861328125,5.72807502746582,-10.957717895507812,0.10395651310682297,-0.06050337851047516,-0.08465850353240967,-0.7484961152076721,0.12054549902677536,-0.3434964418411255
0.0,0.0031958213,0.02217798,0,-38.3266716003418,5.726992607116699,-10.957992553710938,0.15265753865242004,-0.006116606295108795,-0.07193666696548462,-0.30050772428512573,0.1869363933801651,1.5960214138031006
0.0,0.0031958213,0.02217798,0,-38.32496643066406,5.725791931152344,-10.958267211914062,0.18022847175598145,-0.009236499667167664,-0.06801091879606247,0.8191671371459961,0.23286674916744232,0.36041057109832764
0.0,0.0031958213,0.02217798,0,-38.32317352294922,5.724589824676514,-10.958526611328125,0.24813759326934814,0.0031046271324157715,-0.05975697562098503,3.0932698249816895,0.15706586837768555,0.8921847939491272
0.0,0.0031958213,0.02217798,0,-38.32168960571289,5.723333835601807,-10.958908081054688,0.22247305512428284,-0.04344494268298149,-0.06025007367134094,1.9098807573318481,-1.1025395393371582,-0.2938275635242462
0.0,0.0031958213,0.02217798,0,-38.32033157348633,5.722014904022217,-10.959304809570312,0.16724273562431335,-0.06474398076534271,-0.04492722451686859,1.867800235748291,0.7953868508338928,1.291053295135498
0.0,0.0031958213,0.02217798,0,-38.31902313232422,5.7207560539245605,-10.9595947265625,0.0651475340127945,-0.11441563814878464,-0.02951783314347267,-0.9911328554153442,0.22785431146621704,1.09562087059021
0.0,0.0031958213,0.02217798,0,-38.31764221191406,5.719438076019287,-10.959945678710938,0.008016623556613922,-0.14936389029026031,-0.0031453934498131275,-2.2249855995178223,0.4661603271961212,2.3096325397491455
0.0,0.0031958213,0.02217798,0,-38.31605529785156,5.718265056610107,-10.960189819335938,-0.011408403515815735,-0.16471847891807556,0.004861203022301197,-4.0625224113464355,-0.545606255531311,0.7693398594856262
0.0,0.0031958213,0.02217798,0,-38.314544677734375,5.717034339904785,-10.960494995117188,0.029008259996771812,-0.16512981057167053,-0.0017024935223162174,-2.8355793952941895,0.011013230308890343,-0.5798419713973999
0.0,0.0031958213,0.02217798,0,-38.3129997253418,5.716075897216797,-10.960708618164062,0.11493158340454102,-0.11430265754461288,-0.022256741300225258,-0.3336668014526367,-0.8043652176856995,-1.596630334854126
0.0,0.0035443413,0.024051148,0,-38.3115119934082,5.715011119842529,-10.961013793945312,0.1565876603126526,-0.09311804920434952,-0.049220971763134,0.6361362338066101,-0.7313898205757141,-2.501171827316284
0.0,0.0035443413,0.024051148,0,-38.30998229980469,5.7141523361206055,-10.961257934570312,0.18801835179328918,-0.033704690635204315,-0.059187933802604675,1.8251962661743164,-0.06957796216011047,-0.6707303524017334
0.0,0.0035443413,0.024051148,0,-38.30868911743164,5.7130446434021,-10.9615478515625,0.15022408962249756,-0.050638873130083084,-0.05863571912050247,1.1533759832382202,-0.01820928417146206,-0.1035318523645401
0.0,0.0035443413,0.024051148,0,-38.30747604370117,5.7114410400390625,-10.961959838867188,0.13510984182357788,-0.05820712074637413,-0.03449242562055588,1.3886922597885132,0.407134085893631,2.301743507385254
0.0,0.0035443413,0.024051148,0,-38.3062629699707,5.70980978012085,-10.96234130859375,0.10584840178489685,-0.11638528108596802,-0.0203685462474823,-0.8888559341430664,-1.6728662252426147,1.1628425121307373
0.0,0.0035443413,0.024051148,0,-38.30503845214844,5.708232879638672,-10.96270751953125,0.11443670839071274,-0.11958126723766327,-0.0079115591943264,0.42012569308280945,-0.8541309237480164,1.2674061059951782
0.0,0.0035443413,0.024051148,0,-38.30384826660156,5.706703186035156,-10.963027954101562,0.10377682000398636,-0.13320785760879517,-0.01807921752333641,0.023673847317695618,-1.5584065914154053,-1.0380737781524658
0.0,0.0035443413,0.024051148,0,-38.30288314819336,5.705043792724609,-10.963363647460938,0.07893902063369751,-0.12234056740999222,-0.020533697679638863,2.056882858276367,0.015125027857720852,-0.2995218336582184
0.0,0.0035443413,0.024051148,0,-38.30185317993164,5.703449726104736,-10.963653564453125,0.009617678821086884,-0.11929695308208466,-0.021760426461696625,-1.10493004322052,0.02519860863685608,-0.25936412811279297
0.0,0.0035443413,0.024051148,0,-38.300846099853516,5.701590538024902,-10.963973999023438,-0.03397976607084274,-0.13861183822155,-0.008059324696660042,-2.1302127838134766,0.784595787525177,1.1880444288253784
0.0,0.003382821,0.02318304,0,-38.29960250854492,5.699861526489258,-10.96429443359375,-0.025062114000320435,-0.13026195764541626,0.00329520832747221,-4.154357433319092,0.7152042984962463,1.246751070022583
0.0,0.003382821,0.02318304,0,-38.29838943481445,5.697988033294678,-10.964630126953125,0.03791289031505585,-0.1490015983581543,-0.00019470532424747944,-2.3370089530944824,-0.18463878333568573,-0.2507265508174896
0.0,0.003382821,0.02318304,0,-38.29718780517578,5.696176528930664,-10.9649658203125,0.1296740025281906,-0.14105495810508728,-0.027733195573091507,0.6643912196159363,-0.2749454975128174,-2.584744930267334
0.0,0.003382821,0.02318304,0,-38.296146392822266,5.69445276260376,-10.965316772460938,0.16554923355579376,-0.14285580813884735,-0.06494973599910736,1.7070034742355347,-2.2569174766540527,-3.630483865737915
0.0,0.003382821,0.02318304,0,-38.2951545715332,5.692688465118408,-10.965744018554688,0.12167027592658997,-0.09389042854309082,-0.09020765870809555,1.2825945615768433,0.3990743160247803,-2.479720115661621
0.0,0.003382821,0.02318304,0,-38.294288635253906,5.690876483917236,-10.966156005859375,0.036537449806928635,-0.08614672720432281,-0.08293135464191437,0.9727450609207153,0.14710374176502228,0.558289110660553
0.0,0.003382821,0.02318304,0,-38.29338455200195,5.688977241516113,-10.966537475585938,-0.02737998589873314,-0.08275734633207321,-0.056799497455358505,-0.7469233870506287,1.929243803024292,2.4378950595855713
0.0,0.003382821,0.02318304,0,-38.29219055175781,5.687097549438477,-10.966873168945312,-0.024407222867012024,-0.10883154720067978,-0.004911371506750584,-2.0762805938720703,-0.13943596184253693,5.1566925048828125
0.0,0.003382821,0.02318304,0,-38.29093551635742,5.68507194519043,-10.967193603515625,0.0650126039981842,-0.1553245484828949,0.0211184024810791,-0.1196819320321083,-0.14590832591056824,2.5916638374328613
0.0,0.003382821,0.02318304,0,-38.28962707519531,5.683256149291992,-10.96759033203125,0.17286613583564758,-0.18417835235595703,0.038396067917346954,0.4504162669181824,-1.8470934629440308,1.7769005298614502
0.0,0.004298721,0.028105555,0,-38.288516998291016,5.681248188018799,-10.96795654296875,0.2374567687511444,-0.20370765030384064,0.004246951546519995,2.0559561252593994,-2.102745532989502,-3.39967679977417
0.0,0.004298721,0.028105555,0,-38.2874870300293,5.679432392120361,-10.96832275390625,0.21977123618125916,-0.15729938447475433,-0.02578027918934822,0.9505845308303833,-0.5327045917510986,-2.8791849613189697
0.0,0.004298721,0.028105555,0,-38.28705978393555,5.676670074462891,-10.968307495117188,0.12761083245277405,-0.12655605375766754,-0.07635845243930817,1.5376098155975342,-0.679913341999054,-5.0663371086120605
0.0,0.004298721,0.028105555,0,-38.286468505859375,5.673976898193359,-10.968353271484375,0.020603228360414505,-0.045857079327106476,-0.08324816077947617,-0.8412644863128662,1.780150055885315,-0.6779648065567017
0.0,0.004298721,0.028105555,0,-38.28586196899414,5.671186447143555,-10.968399047851562,-0.050491951406002045,-0.03659173846244812,-0.06947336345911026,-0.7976680994033813,0.9812006950378418,1.2562572956085205
0.0,0.004298721,0.028105555,0,-38.28496170043945,5.6682586669921875,-10.968414306640625,-0.022992372512817383,-0.030683040618896484,-0.007625373546034098,-0.0041993772611021996,2.273153781890869,6.176786422729492
0.0,0.004298721,0.028105555,0,-38.284061431884766,5.6653313636779785,-10.968399047851562,0.03006783127784729,-0.11122049391269684,0.025554100051522255,-0.2600783109664917,0.012045614421367645,3.159531593322754
0.0,0.004298721,0.028105555,0,-38.28315734863281,5.662333965301514,-10.96844482421875,0.09024682641029358,-0.18065714836120605,0.030849197879433632,-0.6699081063270569,0.41809555888175964,0.3595711886882782
0.0,0.004298721,0.028105555,0,-38.28254699707031,5.659592628479004,-10.968460083007812,0.0876925140619278,-0.2138810157775879,-0.012766337022185326,-1.3393646478652954,-1.8438307046890259,-4.407104969024658
0.0,0.004298721,0.028105555,0,-38.28192901611328,5.6568522453308105,-10.968521118164062,0.06864330172538757,-0.18850594758987427,-0.057965319603681564,-0.4460367262363434,-1.7234359979629517,-4.435116291046143
0.0,0.0038654348,0.02577688,0,-38.28147888183594,5.654314041137695,-10.968551635742188,0.0036449581384658813,-0.10052841901779175,-0.09664647281169891,0.7188313603401184,-0.49581974744796753,-3.7504405975341797
0.0,0.0038654348,0.02577688,0,-38.281105041503906,5.651575565338135,-10.968612670898438,-0.07872839272022247,-0.0407567024230957,-0.07912130653858185,1.388487696647644,2.0377626419067383,1.6814205646514893
0.0,0.0038654348,0.02577688,0,-38.280635833740234,5.648752212524414,-10.96868896484375,-0.13918015360832214,-0.04140568524599075,-0.031774621456861496,-0.5201103091239929,2.6138360500335693,4.571361541748047
0.0,0.0038654348,0.02577688,0,-38.27970886230469,5.645899772644043,-10.968841552734375,-0.07347381860017776,-0.11541636288166046,0.012767231091856956,-1.6333866119384766,0.9978428483009338,4.398116111755371
0.0,0.0038654348,0.02577688,0,-38.27888870239258,5.643184185028076,-10.968994140625,-0.03040507808327675,-0.1819351613521576,0.02118305116891861,-1.9197523593902588,-0.6428850889205933,0.7625649571418762
0.0,0.0038654348,0.02577688,0,-38.27801513671875,5.640566825866699,-10.9691162109375,0.03227543085813522,-0.19357697665691376,-0.0012475702678784728,-1.3539795875549316,-0.09822086244821548,-2.2270307540893555
0.0,0.0038654348,0.02577688,0,-38.27736282348633,5.638071060180664,-10.96917724609375,0.0658881813287735,-0.16298380494117737,-0.037982575595378876,-0.15772221982479095,0.48810243606567383,-3.6181228160858154
0.0,0.0038654348,0.02577688,0,-38.27671432495117,5.635524749755859,-10.969284057617188,0.10738402605056763,-0.13841019570827484,-0.044572614133358,2.99177622795105,1.385200023651123,-0.6546826958656311
0.0,0.0038654348,0.02577688,0,-38.27631759643555,5.632938385009766,-10.969345092773438,0.082530677318573,-0.18701432645320892,-0.023817336186766624,3.4403107166290283,-0.08562728762626648,1.9434577226638794
0.0,0.0038654348,0.02577688,0,-38.27576446533203,5.630488395690918,-10.969482421875,0.03436156362295151,-0.2341124415397644,0.010806500911712646,-0.2746865153312683,-1.2689299583435059,3.3555572032928467
0.0,0.0041655623,0.027389906,0,-38.275054931640625,5.628330707550049,-10.969619750976562,0.01302606612443924,-0.23710933327674866,0.006384190171957016,-2.5730690956115723,-1.7684988975524902,-0.40642693638801575
0.0,0.0041655623,0.027389906,0,-38.27450942993164,5.626044273376465,-10.969970703125,0.004778582602739334,-0.20711973309516907,-0.03931138664484024,-1.0228646993637085,-0.46546855568885803,-4.518991947174072
0.0,0.0041655623,0.027389906,0,-38.27412796020508,5.6235880851745605,-10.969772338867188,-0.04046102613210678,-0.12682241201400757,-0.08117252588272095,-2.429790496826172,0.833771288394928,-4.138589859008789
0.0,0.0041655623,0.027389906,0,-38.27382278442383,5.621010780334473,-10.969650268554688,-0.02916085161268711,-0.06716359406709671,-0.08081895858049393,1.5777032375335693,1.2117249965667725,0.03097355365753174
0.0,0.0041655623,0.027389906,0,-38.273563385009766,5.6182990074157715,-10.969497680664062,-0.047890689224004745,-0.05426150560379028,-0.029018284752964973,1.499019742012024,2.7474448680877686,5.115816116333008
0.0,0.0041655623,0.027389906,0,-38.273170471191406,5.615468978881836,-10.969406127929688,-0.01931200921535492,-0.16203655302524567,0.025824368000030518,1.4090909957885742,0.2771975100040436,5.368618011474609
0.0,0.0041655623,0.027389906,0,-38.2724609375,5.612788200378418,-10.969314575195312,0.023885633796453476,-0.24193133413791656,0.028215985745191574,-3.9636611938476562,-0.22963210940361023,0.14169514179229736
0.0,0.0041655623,0.027389906,0,-38.27204895019531,5.610334873199463,-10.969223022460938,0.07170994579792023,-0.24015627801418304,-0.02110294997692108,-0.5280525088310242,-0.6205746531486511,-4.947623252868652
0.0,0.0041655623,0.027389906,0,-38.27165985107422,5.6080803871154785,-10.96905517578125,0.06607436388731003,-0.1755097210407257,-0.04195991903543472,-1.2690101861953735,0.3703056275844574,-2.0596258640289307
0.0,0.0041655623,0.027389906,0,-38.271400451660156,5.605688095092773,-10.969009399414062,0.08913903683423996,-0.13601261377334595,-0.03609182685613632,2.8178505897521973,1.4237675666809082,0.5720227360725403
0.0,0.0035487267,0.024074716,0,-38.2711067199707,5.603171348571777,-10.968963623046875,0.08362265676259995,-0.18553420901298523,0.005663631483912468,1.8502219915390015,0.22506225109100342,4.127495765686035
0.0,0.0035487267,0.024074716,0,-38.270790100097656,5.600707054138184,-10.968856811523438,0.07374940812587738,-0.25020790100097656,0.012591905891895294,-1.3079960346221924,-1.2430319786071777,0.6188064217567444
0.0,0.0035487267,0.024074716,0,-38.270599365234375,5.598707675933838,-10.968658447265625,0.059328433126211166,-0.21777456998825073,-0.015091588720679283,-2.412020444869995,-1.086173176765442,-2.760988473892212
0.0,0.0035487267,0.024074716,0,-38.27053451538086,5.596685886383057,-10.968490600585938,0.04479551315307617,-0.15853823721408844,-0.056779325008392334,0.5269242525100708,0.7798183560371399,-4.17249059677124
0.0,0.0035487267,0.024074716,0,-38.27043533325195,5.594627857208252,-10.968246459960938,-0.011674241162836552,-0.10159386694431305,-0.05004657804965973,-0.47220176458358765,1.9656535387039185,0.6531279683113098
0.0,0.0035487267,0.024074716,0,-38.27043533325195,5.592390060424805,-10.968109130859375,0.004550261422991753,-0.13764508068561554,-0.014612170867621899,2.550495147705078,0.5411668419837952,3.51064395904541
0.0,0.0035487267,0.024074716,0,-38.2703971862793,5.590275287628174,-10.967971801757812,-0.042604707181453705,-0.1815875768661499,0.027316182851791382,-2.7327442169189453,0.35437798500061035,4.16154670715332
0.0,0.0035487267,0.024074716,0,-38.27014923095703,5.588436126708984,-10.9678955078125,0.020935317501425743,-0.19999147951602936,-0.004810021258890629,-1.6728829145431519,-0.8712908029556274,-3.245030403137207
0.0,0.0035487267,0.024074716,0,-38.270263671875,5.586681365966797,-10.967636108398438,0.028056636452674866,-0.14459222555160522,-0.04359309747815132,-0.8540372252464294,0.16555042564868927,-3.910348653793335
0.0,0.0035487267,0.024074716,0,-38.270389556884766,5.584920883178711,-10.967437744140625,0.0024863295257091522,-0.08520787209272385,-0.05216804891824722,0.22115159034729004,1.4160220623016357,-0.9043413996696472
0.0,0.0029037776,0.020608326,0,-38.270416259765625,5.583034515380859,-10.967178344726562,0.014021196402609348,-0.08530261367559433,-0.007545500062406063,0.8539861440658569,1.358612298965454,4.438268661499023
0.0,0.0029037776,0.020608326,0,-38.2705078125,5.581096649169922,-10.967071533203125,0.061357054859399796,-0.12567348778247833,0.018488289788365364,1.9109638929367065,1.931462049484253,2.5923125743865967
0.0,0.0029037776,0.020608326,0,-38.270294189453125,5.579086780548096,-10.966537475585938,0.06255851686000824,-0.20254682004451752,0.01622616872191429,-2.988912582397461,-1.8514573574066162,-0.2535395622253418
0.0,0.0029037776,0.020608326,0,-38.270179748535156,5.577120780944824,-10.966079711914062,0.11738786101341248,-0.2074507772922516,-0.037447489798069,2.376194953918457,-2.0578384399414062,-5.400905609130859
0.0,0.0029037776,0.020608326,0,-38.270206451416016,5.575366973876953,-10.965530395507812,0.03920888900756836,-0.14133131504058838,-0.036606013774871826,-0.15088096261024475,1.2564791440963745,0.034843120723962784
0.0,0.0029037776,0.020608326,0,-38.27024841308594,5.573330879211426,-10.965072631835938,0.02213563397526741,-0.15688040852546692,-0.013758453540503979,1.9417362213134766,1.1422264575958252,2.2353806495666504
0.0,0.0029037776,0.020608326,0,-38.27028274536133,5.571441650390625,-10.964584350585938,-0.02628767490386963,-0.19397051632404327,0.04161170870065689,-1.3907290697097778,-0.6549184918403625,5.479088306427002
0.0,0.0029037776,0.020608326,0,-38.270103454589844,5.569687366485596,-10.964019775390625,-0.0030778367072343826,-0.19654816389083862,0.015948226675391197,-3.2482378482818604,-0.7154690027236938,-2.5806689262390137
0.0,0.0029037776,0.020608326,0,-38.27023696899414,5.568104267120361,-10.963348388671875,-0.0012262314558029175,-0.13238254189491272,-0.022946283221244812,-0.23977458477020264,1.0354101657867432,-3.939209222793579
0.0,0.0029037776,0.020608326,0,-38.27036666870117,5.566570281982422,-10.962738037109375,-0.031616710126399994,-0.0748048648238182,-0.05895106866955757,-0.7195802330970764,1.0520604848861694,-3.6835834980010986
0.0,0.002870169,0.020427687,0,-38.27042007446289,5.564925193786621,-10.96209716796875,-0.04936228692531586,-0.02127828076481819,-0.015247788280248642,0.7561132311820984,1.8439455032348633,4.2794671058654785
0.0,0.002870169,0.020427687,0,-38.27052688598633,5.563132286071777,-10.961563110351562,-0.00790993869304657,-0.07094503194093704,0.010753517970442772,2.7654836177825928,1.0910942554473877,2.601931571960449
0.0,0.002870169,0.020427687,0,-38.270450592041016,5.561296463012695,-10.961044311523438,0.004835119470953941,-0.15769018232822418,0.03841271251440048,-2.5149447917938232,0.26728418469429016,2.7670950889587402
0.0,0.002870169,0.020427687,0,-38.270538330078125,5.559808731079102,-10.96063232421875,0.055922865867614746,-0.21147391200065613,-0.0006454942049458623,-0.6819933652877808,-2.372296094894409,-3.897961139678955
0.0,0.002870169,0.020427687,0,-38.27070999145508,5.558440208435059,-10.960189819335938,0.06369780004024506,-0.16027215123176575,-0.02414894476532936,-1.0718632936477661,-0.37641140818595886,-2.367933511734009
0.0,0.002870169,0.020427687,0,-38.27093505859375,5.557044982910156,-10.95977783203125,0.09199943393468857,-0.11507220566272736,-0.044680945575237274,2.296682834625244,-0.39113104343414307,-2.089373826980591
0.0,0.002870169,0.020427687,0,-38.2712516784668,5.555456161499023,-10.959396362304688,0.09618619829416275,-0.11527061462402344,-0.014651797711849213,4.265181064605713,0.2927762567996979,2.9409677982330322
0.0,0.002870169,0.020427687,0,-38.27174758911133,5.553868770599365,-10.9591064453125,0.03621411696076393,-0.16922041773796082,0.0047339824959635735,1.6214038133621216,-1.190098524093628,1.8213659524917603
0.0,0.002870169,0.020427687,0,-38.272003173828125,5.552550315856934,-10.958740234375,-0.05260069668292999,-0.1659603714942932,-0.005368371494114399,-5.317569732666016,-0.716423511505127,-1.095238447189331
0.0,0.002870169,0.020427687,0,-38.272281646728516,5.551474094390869,-10.958419799804688,-0.05730324983596802,-0.0809498205780983,-0.04722332954406738,-2.9030404090881348,0.8959554433822632,-4.206153869628906
0.0,0.00301993,0.021232616,0,-38.27250289916992,5.550337791442871,-10.958053588867188,-0.03341417759656906,-0.00834481418132782,-0.06267092376947403,-0.6231819987297058,1.2249817848205566,-1.5749690532684326
0.0,0.00301993,0.021232616,0,-38.27290344238281,5.549112796783447,-10.957778930664062,0.005101033486425877,0.03876727446913719,-0.06811386346817017,3.352419376373291,3.156942844390869,-0.5784564018249512
0.0,0.00301993,0.021232616,0,-38.27338790893555,5.547647953033447,-10.957427978515625,-0.005711378529667854,-0.017053555697202682,-0.031548094004392624,3.064213275909424,-0.41624149680137634,3.588632345199585
0.0,0.00301993,0.021232616,0,-38.273948669433594,5.5461530685424805,-10.95721435546875,-0.04946101829409599,-0.07647991925477982,-0.02655782550573349,0.12387754768133163,0.19337251782417297,0.4035850465297699
0.0,0.00301993,0.021232616,0,-38.274261474609375,5.545062065124512,-10.956893920898438,-0.08602730929851532,-0.085450679063797,-0.009405196644365788,-3.748338460922241,-0.3302517235279083,1.691182255744934
0.0,0.00301993,0.021232616,0,-38.2745246887207,5.543732166290283,-10.956619262695312,-0.06157853826880455,-0.09420251846313477,-0.031301748007535934,-3.4880478382110596,0.46350881457328796,-2.141017436981201
0.0,0.00301993,0.021232616,0,-38.2746467590332,5.5427374839782715,-10.956329345703125,0.05453963205218315,-0.05624893680214882,-0.030812202021479607,1.8694087266921997,-1.8844529390335083,0.10337857902050018
0.0,0.00301993,0.021232616,0,-38.27515411376953,5.541586399078369,-10.956085205078125,0.046599917113780975,-0.047326669096946716,-0.0885804295539856,2.044489622116089,-1.0215392112731934,-5.83669376373291
0.0,0.00301993,0.021232616,0,-38.275611877441406,5.540658473968506,-10.95587158203125,-0.0025615282356739044,0.04448162764310837,-0.09027270972728729,2.0092971324920654,1.8904646635055542,-0.32310065627098083
0.0,0.00301993,0.021232616,0,-38.276268005371094,5.539540767669678,-10.95562744140625,-0.09941727668046951,0.017469562590122223,-0.09540239721536636,-0.23415949940681458,0.22723376750946045,-0.6668809652328491
0.0,0.0030346098,0.021311516,0,-38.27655029296875,5.538374900817871,-10.9554443359375,-0.11180150508880615,0.021792881190776825,-0.04448653757572174,1.024585247039795,0.49606746435165405,5.039185523986816
0.0,0.0030346098,0.021311516,0,-38.2767448425293,5.537285327911377,-10.955276489257812,-0.12478774785995483,-0.015605699270963669,-0.05640583857893944,-3.233323574066162,-0.5139011144638062,-1.1730221509933472
0.0,0.0030346098,0.021311516,0,-38.27709197998047,5.536257743835449,-10.955154418945312,-0.11138008534908295,0.003754042088985443,-0.06869371235370636,0.6202446222305298,-0.020614812150597572,-1.256523609161377
0.0,0.0030346098,0.021311516,0,-38.27745056152344,5.535250663757324,-10.954940795898438,-0.15663544833660126,0.017632603645324707,-0.09765619784593582,-2.435319423675537,0.8703888654708862,-2.9489498138427734
0.0,0.0030346098,0.021311516,0,-38.27778625488281,5.534173488616943,-10.954757690429688,-0.10991416871547699,0.03515073284506798,-0.06939146667718887,2.1709258556365967,0.28138211369514465,2.836420774459839
0.0,0.0030346098,0.021311516,0,-38.27822494506836,5.5330328941345215,-10.954559326171875,-0.12403038144111633,0.019474219530820847,-0.04903233051300049,0.42103642225265503,1.1782252788543701,1.9894670248031616
0.0,0.0030346098,0.021311516,0,-38.278324127197266,5.531714916229248,-10.954483032226562,-0.08683247864246368,-0.04500042647123337,-0.034434959292411804,-0.7175323367118835,-0.3845853805541992,1.4839205741882324
0.0,0.0030346098,0.021311516,0,-38.27865982055664,5.530730724334717,-10.954360961914062,-0.10614950954914093,-0.041031137108802795,-0.06971968710422516,-2.115387201309204,-0.9219655394554138,-3.552414894104004
0.0,0.0030346098,0.021311516,0,-38.27872085571289,5.5297675132751465,-10.95428466796875,-0.07661329209804535,6.654113531112671e-05,-0.09804161638021469,-1.6151434183120728,0.5212618708610535,-2.7998721599578857
0.0,0.0030346098,0.021311516,0,-38.27897262573242,5.528825759887695,-10.95416259765625,-0.028241939842700958,0.04770061373710632,-0.1220080554485321,3.14961576461792,1.042230248451233,-2.3946714401245117
0.0,0.0026553085,0.019272855,0,-38.279388427734375,5.527811527252197,-10.9541015625,-0.03229258954524994,0.013162840157747269,-0.07911638170480728,4.347760200500488,-1.785375714302063,4.234519004821777
0.0,0.0026553085,0.019272855,0,-38.27991485595703,5.526852607727051,-10.954086303710938,-0.12013071775436401,-0.0008825697004795074,-0.058147162199020386,-2.3110485076904297,1.0655221939086914,2.0193638801574707
0.0,0.0026553085,0.019272855,0,-38.28002166748047,5.525903224945068,-10.954132080078125,-0.11361571401357651,-0.03934912756085396,-0.04878998175263405,-0.13670213520526886,0.30244120955467224,0.8962053656578064
0.0,0.0026553085,0.019272855,0,-38.28023910522461,5.524824619293213,-10.95404052734375,-0.15446965396404266,-0.04499806463718414,-0.06291906535625458,-3.513153553009033,-0.27273300290107727,-1.4307917356491089
0.0,0.0026553085,0.019272855,0,-38.28034973144531,5.523980617523193,-10.9539794921875,-0.09682678431272507,-0.0028724558651447296,-0.0771830677986145,0.02289470285177231,-0.38244137167930603,-1.3795216083526611
0.0,0.0026553085,0.019272855,0,-38.280792236328125,5.523062705993652,-10.95391845703125,-0.11601302027702332,0.020685415714979172,-0.09524164348840714,0.7616129517555237,0.9529585242271423,-1.8200092315673828
0.0,0.0026553085,0.019272855,0,-38.281272888183594,5.522098541259766,-10.953933715820312,-0.1432376503944397,0.04463206231594086,-0.08310290426015854,1.2980087995529175,2.8642210960388184,1.1856155395507812
0.0,0.0026553085,0.019272855,0,-38.28158187866211,5.521020412445068,-10.953903198242188,-0.1741366982460022,-0.017395824193954468,-0.05588994175195694,-2.3384737968444824,1.0553429126739502,2.6402640342712402
0.0,0.0026553085,0.019272855,0,-38.28178787231445,5.52014684677124,-10.953994750976562,-0.09094856679439545,-0.04827669635415077,-0.024833695963025093,0.7677430510520935,-0.05233217403292656,3.0427424907684326
0.0,0.0026553085,0.019272855,0,-38.28209686279297,5.519438743591309,-10.953994750976562,-0.09356099367141724,-0.08859892189502716,-0.030783966183662415,-2.381639003753662,-1.4727057218551636,-0.6557337641716003
0.0,0.003267279,0.02256204,0,-38.282470703125,5.518817901611328,-10.954177856445312,-0.06320039182901382,-0.05795999988913536,-0.04967975243926048,-0.5775522589683533,-0.7179367542266846,-1.8853845596313477
0.0,0.003267279,0.02256204,0,-38.28291702270508,5.5183186531066895,-10.954254150390625,-0.05448221415281296,-0.013989944010972977,-0.054949406534433365,0.1064695417881012,-0.13704946637153625,-0.5088900923728943
0.0,0.003267279,0.02256204,0,-38.283390045166016,5.517560005187988,-10.954452514648438,-0.008295735344290733,-0.0028947091195732355,-0.029326338320970535,3.387465238571167,1.7685227394104004,2.5176503658294678
0.0,0.003267279,0.02256204,0,-38.283851623535156,5.516826629638672,-10.954620361328125,-0.005136363208293915,-0.07029147446155548,-0.0006664020475000143,-0.02392658032476902,-0.13114668428897858,2.7645018100738525
0.0,0.003267279,0.02256204,0,-38.28435516357422,5.516200065612793,-10.954833984375,-0.003262929618358612,-0.10497470200061798,-0.017126470804214478,-0.4970042109489441,-1.9061951637268066,-1.6944031715393066
0.0,0.003267279,0.02256204,0,-38.28488540649414,5.515875339508057,-10.954971313476562,-0.02675306424498558,-0.062495287507772446,-0.052933160215616226,-3.1504812240600586,0.00882553681731224,-3.561009168624878
0.0,0.003267279,0.02256204,0,-38.2855224609375,5.515427112579346,-10.955215454101562,0.012830432504415512,-0.02517618238925934,-0.049376264214515686,2.4095990657806396,-0.08868779987096786,0.3443828523159027
0.0,0.003267279,0.02256204,0,-38.286285400390625,5.5149431228637695,-10.955459594726562,0.0041665490716695786,-0.03154365345835686,-0.02520410157740116,1.8115572929382324,0.40943828225135803,2.423598289489746
0.0,0.003267279,0.02256204,0,-38.28702163696289,5.514537334442139,-10.955825805664062,-0.014382876455783844,-0.05531315505504608,-0.013214094564318657,0.03933960199356079,-0.5086073279380798,1.1905887126922607
0.0,0.003267279,0.02256204,0,-38.28778076171875,5.514302730560303,-10.956192016601562,-0.07807707786560059,-0.04412845894694328,-0.05822526291012764,-3.528338670730591,-0.619438648223877,-4.481964588165283
0.0,0.002940791,0.020807263,0,-38.288333892822266,5.514135360717773,-10.956588745117188,-0.06563330441713333,0.03532492741942406,-0.09334907680749893,-1.3646717071533203,1.8307583332061768,-3.5474796295166016
0.0,0.002940791,0.020807263,0,-38.28908157348633,5.513848304748535,-10.957061767578125,-0.052316196262836456,0.05263826996088028,-0.09486206620931625,1.1866830587387085,1.39226233959198,-0.17717017233371735
0.0,0.002940791,0.020807263,0,-38.290260314941406,5.513559341430664,-10.95745849609375,-0.030164919793605804,0.02094808779656887,-0.04646214842796326,4.846692085266113,0.6536195278167725,4.83599328994751
0.0,0.002940791,0.020807263,0,-38.29153060913086,5.513458728790283,-10.957855224609375,-0.11417160928249359,-0.05991515517234802,-0.020651893690228462,-1.9831817150115967,-2.0722296237945557,2.5748722553253174
0.0,0.002940791,0.020807263,0,-38.2924919128418,5.513362884521484,-10.958328247070312,-0.1310970038175583,-0.03733620047569275,-0.04535958915948868,-5.7193217277526855,1.4135266542434692,-2.5044240951538086
0.0,0.002940791,0.020807263,0,-38.29334259033203,5.513558387756348,-10.958724975585938,-0.06975190341472626,0.017569925636053085,-0.0668792724609375,-1.3293057680130005,0.5702873468399048,-2.218183994293213
0.0,0.002940791,0.020807263,0,-38.2944450378418,5.513431072235107,-10.959228515625,0.020175807178020477,0.01956385187804699,-0.07694516330957413,4.297675609588623,0.7779366970062256,-1.0550287961959839
0.0,0.002940791,0.020807263,0,-38.29563903808594,5.513444423675537,-10.959747314453125,-0.02008763700723648,0.0010886471718549728,-0.056915611028671265,0.2335864007472992,0.8762856125831604,2.0194904804229736
0.0,0.002940791,0.020807263,0,-38.2967643737793,5.5133891105651855,-10.96038818359375,-0.01847480610013008,-0.05426923558115959,-0.0385383665561676,-0.6860215067863464,0.9932221174240112,1.8058911561965942
0.0,0.002940791,0.020807263,0,-38.29771423339844,5.513545989990234,-10.960983276367188,-0.012998156249523163,-0.0678042471408844,-0.037822626531124115,-3.2341527938842773,-0.37961864471435547,0.02446398138999939
0.0,0.0027687044,0.019882336,0,-38.29872512817383,5.513649940490723,-10.961624145507812,0.06590356677770615,-0.08545657247304916,-0.06017628312110901,3.6679799556732178,-1.8686211109161377,-2.280271530151367
0.0,0.0027687044,0.019882336,0,-38.29991912841797,5.513815402984619,-10.96221923828125,0.02376919612288475,-0.06252054870128632,-0.06167757138609886,1.0985438823699951,-0.27510568499565125,-0.11545047163963318
0.0,0.0027687044,0.019882336,0,-38.30110168457031,5.5138630867004395,-10.962875366210938,-0.015317603945732117,-0.0702720433473587,-0.04986584559082985,0.6497883200645447,0.897230327129364,1.1838555335998535
0.0,0.0027687044,0.019882336,0,-38.302101135253906,5.5140604972839355,-10.963485717773438,-0.08124027401208878,-0.059625737369060516,-0.025117302313447,-3.4928910732269287,0.8008213043212891,2.4712114334106445
0.0,0.0027687044,0.019882336,0,-38.302894592285156,5.514286518096924,-10.9642333984375,0.006030425429344177,-0.04840946942567825,-0.06021536886692047,0.17335523664951324,-0.3195071518421173,-3.566662549972534
0.0,0.0027687044,0.019882336,0,-38.30405807495117,5.5146565437316895,-10.964828491210938,-0.012185774743556976,-0.00791427306830883,-0.09611299633979797,1.3185899257659912,0.31744837760925293,-3.578613042831421
0.0,0.0027687044,0.019882336,0,-38.30538558959961,5.514898300170898,-10.96551513671875,-0.06430128961801529,0.030012160539627075,-0.10488060861825943,2.7239181995391846,2.086268901824951,-0.8695400953292847
0.0,0.0027687044,0.019882336,0,-38.30653762817383,5.515085697174072,-10.96612548828125,-0.1368030458688736,-0.003992386162281036,-0.05140591785311699,-0.4473729729652405,0.021912069991230965,5.343850612640381
0.0,0.0027687044,0.019882336,0,-38.307334899902344,5.515300750732422,-10.9669189453125,-0.10242347419261932,-0.04747134819626808,-0.035717397928237915,-0.9654291868209839,-1.9724375009536743,1.5687888860702515
0.0,0.0027687044,0.019882336,0,-38.30831527709961,5.515690803527832,-10.9676513671875,-0.11920402944087982,-0.012172339484095573,-0.07244875282049179,-3.220183849334717,-0.7667434811592102,-3.6920382976531982
0.0,0.003192008,0.022157483,0,-38.30921936035156,5.516007900238037,-10.9683837890625,-0.07830987125635147,0.0689115896821022,-0.11804096400737762,0.67216956615448,2.674178123474121,-4.60903787612915
0.0,0.003192008,0.022157483,0,-38.31007766723633,5.516185283660889,-10.969085693359375,-0.055046141147613525,0.10535642504692078,-0.08918695151805878,2.4410300254821777,2.3077900409698486,2.8658864498138428
0.0,0.003192008,0.022157483,0,-38.311134338378906,5.516185283660889,-10.970123291015625,-0.018827900290489197,0.0025336071848869324,-0.05486372113227844,4.449344158172607,-1.099475383758545,3.483665704727173
0.0,0.003192008,0.022157483,0,-38.31209182739258,5.516402721405029,-10.971267700195312,-0.0654483363032341,-0.053218916058540344,-0.042390502989292145,-3.2319350242614746,-1.4446851015090942,1.2725634574890137
0.0,0.003192008,0.022157483,0,-38.3128776550293,5.516667366027832,-10.972412109375,-0.02707618474960327,-0.04489980265498161,-0.06706324964761734,-3.5898261070251465,-0.36444777250289917,-2.517127275466919
0.0,0.003192008,0.022157483,0,-38.31364440917969,5.51698112487793,-10.973495483398438,0.07007822394371033,-0.005720037966966629,-0.07847172766923904,1.9180350303649902,-0.7487694025039673,-1.2571992874145508
0.0,0.003192008,0.022157483,0,-38.31480407714844,5.51725435256958,-10.974609375,0.08527806401252747,-0.0013290941715240479,-0.07683629542589188,4.0647711753845215,0.003812843468040228,0.19513607025146484
0.0,0.003192008,0.022157483,0,-38.3157844543457,5.517570972442627,-10.975677490234375,0.018290583044290543,-0.0037399791181087494,-0.06739453971385956,-2.2001090049743652,0.7639383673667908,0.9876739382743835
0.0,0.003192008,0.022157483,0,-38.31669998168945,5.518025875091553,-10.976699829101562,0.029605448246002197,0.003875233232975006,-0.07616002857685089,-1.5335795879364014,-0.030898116528987885,-0.9331569075584412
0.0,0.003192008,0.022157483,0,-38.31752395629883,5.51859712600708,-10.977584838867188,0.054030559957027435,0.04853261634707451,-0.09636837989091873,-0.5933614373207092,0.648674726486206,-2.1095380783081055
0.0,0.0027986139,0.020043094,0,-38.31869125366211,5.519031047821045,-10.978530883789062,0.0674845427274704,0.042293645441532135,-0.09473390877246857,4.354736804962158,0.18103890120983124,0.214034765958786
0.0,0.0027986139,0.020043094,0,-38.31987380981445,5.519620418548584,-10.9793701171875,-0.04685875028371811,0.03477202355861664,-0.06888419389724731,-1.8173784017562866,0.056681349873542786,2.7282392978668213
0.0,0.0027986139,0.020043094,0,-38.3208122253418,5.520191669464111,-10.980300903320312,-0.06483253836631775,0.03535224869847298,-0.0641477108001709,-2.6124489307403564,0.9419645071029663,0.4596897065639496
0.0,0.0027986139,0.020043094,0,-38.321632385253906,5.5210862159729,-10.98114013671875,-0.04772423952817917,0.09224878251552582,-0.0709962472319603,-3.730705738067627,0.41307488083839417,-0.8193273544311523
0.0,0.0027986139,0.020043094,0,-38.322662353515625,5.521816730499268,-10.982040405273438,0.04011578857898712,0.12352167069911957,-0.10369706153869629,4.342758655548096,1.7301851511001587,-3.373560667037964
0.0,0.0027986139,0.020043094,0,-38.32403564453125,5.522605895996094,-10.982818603515625,-0.03847045451402664,0.11839358508586884,-0.08772262185811996,1.220530390739441,0.8546394109725952,1.773383378982544
0.0,0.0027986139,0.020043094,0,-38.32522201538086,5.52324104309082,-10.98370361328125,-0.07628560811281204,0.07742200791835785,-0.06024252995848656,-1.1589272022247314,1.7695268392562866,2.823103666305542
0.0,0.0027986139,0.020043094,0,-38.32603073120117,5.524091720581055,-10.984481811523438,-0.07470338046550751,0.06359635293483734,-0.043931059539318085,-5.537713050842285,0.06115271896123886,1.5268847942352295
0.0,0.0027986139,0.020043094,0,-38.32705307006836,5.525068759918213,-10.985321044921875,0.044953785836696625,0.053489379584789276,-0.06301742047071457,4.778282165527344,-2.563596487045288,-2.0732839107513428
0.0,0.0027986139,0.020043094,0,-38.32817459106445,5.526029586791992,-10.986160278320312,0.018655121326446533,0.0810963362455368,-0.06829725205898285,0.04598796367645264,0.4975337088108063,-0.487682044506073
0.0,0.0028868592,0.020517392,0,-38.329322814941406,5.52687406539917,-10.987106323242188,0.013207472860813141,0.07195793092250824,-0.0550219900906086,0.41682013869285583,1.3989959955215454,1.3618401288986206
0.0,0.0028868592,0.020517392,0,-38.3303108215332,5.5278730392456055,-10.9879150390625,0.0004466250538825989,0.07169431447982788,-0.045667096972465515,-1.9689197540283203,-0.40827053785324097,0.9075855016708374
0.0,0.0028868592,0.020517392,0,-38.33150100708008,5.528710842132568,-10.988861083984375,0.06678974628448486,0.0832943469285965,-0.07577991485595703,2.8119781017303467,-0.18901188671588898,-3.105153799057007
0.0,0.0028868592,0.020517392,0,-38.332763671875,5.529516220092773,-10.989608764648438,0.01825346052646637,0.06990887224674225,-0.07598938047885895,2.219557046890259,-0.30104297399520874,0.14703254401683807
0.0,0.0028868592,0.020517392,0,-38.33413314819336,5.530158519744873,-10.990463256835938,-0.04801318049430847,0.04161394387483597,-0.0494840070605278,-0.09354232996702194,1.039854645729065,2.7876944541931152
0.0,0.0028868592,0.020517392,0,-38.33525466918945,5.531057357788086,-10.991165161132812,-0.13462819159030914,0.03990720957517624,-0.035241249948740005,-6.373469352722168,0.34940075874328613,1.4677364826202393
0.0,0.0028868592,0.020517392,0,-38.33617401123047,5.531989574432373,-10.991973876953125,-0.04205137491226196,0.06785591691732407,-0.05699143931269646,0.13700425624847412,-0.8136491179466248,-2.3668534755706787
0.0,0.0028868592,0.020517392,0,-38.33736038208008,5.533034324645996,-10.992599487304688,-0.014690645039081573,0.1100291907787323,-0.06312170624732971,2.169382095336914,-0.2774832844734192,-0.6388897895812988
0.0,0.0028868592,0.020517392,0,-38.338714599609375,5.533856391906738,-10.99334716796875,-0.06446176767349243,0.12128172069787979,-0.05497448891401291,-0.4789181053638458,2.300335168838501,0.9147364497184753
0.0,0.0028868592,0.020517392,0,-38.339691162109375,5.534749507904053,-10.993988037109375,-0.07425491511821747,0.12601378560066223,-0.03845769912004471,-3.9004881381988525,2.262869358062744,1.5987207889556885
0.0,0.0034123978,0.023342004,0,-38.34086990356445,5.535677909851074,-10.994583129882812,0.00525394082069397,0.09882675111293793,-0.05025520548224449,4.012549877166748,-1.1015394926071167,-1.2524200677871704
0.0,0.0034123978,0.023342004,0,-38.342002868652344,5.5366692543029785,-10.995040893554688,0.015014581382274628,0.09155423939228058,-0.059633295983076096,0.3222745358943939,0.21229423582553864,-0.9524458050727844
0.0,0.0034123978,0.023342004,0,-38.343406677246094,5.537569999694824,-10.995590209960938,0.0013780668377876282,0.06313786655664444,-0.04654919356107712,1.8771055936813354,-0.05409345030784607,1.3686621189117432
0.0,0.0034123978,0.023342004,0,-38.34461212158203,5.538496017456055,-10.996063232421875,-0.03999073803424835,0.028795570135116577,-0.02098984643816948,-1.9065721035003662,0.08071648329496384,2.565079689025879
0.0,0.0034123978,0.023342004,0,-38.34579849243164,5.539622783660889,-10.996673583984375,-0.012616559863090515,0.036721572279930115,-0.01170905027538538,-0.20056161284446716,-1.7858635187149048,0.8852399587631226
0.0,0.0034123978,0.023342004,0,-38.346946716308594,5.540729522705078,-10.997238159179688,0.0028244629502296448,0.055699460208415985,-0.0625796690583229,-0.17134472727775574,-1.337550401687622,-5.100620746612549
0.0,0.0034123978,0.023342004,0,-38.3483772277832,5.541772842407227,-10.997909545898438,-0.02703665941953659,0.0993761494755745,-0.06475075334310532,2.029813051223755,0.6097410917282104,-0.11242299526929855
0.0,0.0034123978,0.023342004,0,-38.34965896606445,5.54271125793457,-10.998458862304688,-0.08627992868423462,0.11220666021108627,-0.06673523038625717,-1.8081223964691162,2.3424136638641357,-0.1532062441110611
0.0,0.0034123978,0.023342004,0,-38.3508415222168,5.543484687805176,-10.999114990234375,-0.06648840010166168,0.0869046002626419,-0.014765536412596703,0.6225228905677795,1.4996249675750732,5.130122184753418
0.0,0.0034123978,0.023342004,0,-38.351924896240234,5.54451322555542,-10.99969482421875,-0.052396196871995926,0.02560161054134369,-0.014319241978228092,-1.8177114725112915,-2.1528141498565674,-0.055302996188402176
0.0,0.0026793315,0.019401975,0,-38.353057861328125,5.5454583168029785,-11.000320434570312,-0.042628683149814606,0.040804460644721985,-0.047407884150743484,-1.2570593357086182,0.5455171465873718,-3.3423283100128174
0.0,0.0026793315,0.019401975,0,-38.354034423828125,5.546708106994629,-11.000823974609375,-0.009775996208190918,0.08783751726150513,-0.05997147783637047,1.2999866008758545,0.20979422330856323,-1.222182273864746
0.0,0.0026793315,0.019401975,0,-38.355220794677734,5.547590732574463,-11.00128173828125,-0.0026546120643615723,0.08332149684429169,-0.039238907396793365,1.6448402404785156,0.9431315660476685,2.051276683807373
0.0,0.0026793315,0.019401975,0,-38.3560905456543,5.5486531257629395,-11.001693725585938,0.051052093505859375,0.0667848214507103,0.0029654602985829115,1.022425889968872,-0.02139425091445446,4.105637073516846
0.0,0.0026793315,0.019401975,0,-38.357177734375,5.54961633682251,-11.002288818359375,0.06573116034269333,0.017436161637306213,-0.032289691269397736,0.08617546409368515,-1.180795669555664,-3.630427360534668
0.0,0.0026793315,0.019401975,0,-38.35808181762695,5.550919055938721,-11.002792358398438,0.06302578747272491,0.05706845968961716,-0.06743257492780685,-1.8011424541473389,-0.4650888442993164,-3.463270902633667
0.0,0.0026793315,0.019401975,0,-38.35918426513672,5.552156448364258,-11.00335693359375,0.07532713562250137,0.08042539656162262,-0.10387735813856125,2.666457176208496,-1.9601993560791016,-3.546396255493164
0.0,0.0026793315,0.019401975,0,-38.360408782958984,5.553435802459717,-11.003875732421875,0.031958118081092834,0.13885629177093506,-0.07763763517141342,2.8531088829040527,0.27835676074028015,2.814645767211914
0.0,0.0026793315,0.019401975,0,-38.36180114746094,5.55458927154541,-11.004440307617188,-0.03813757002353668,0.10125517100095749,-0.06824223697185516,1.701876163482666,-0.4082592725753784,0.9710659980773926
0.0,0.0026793315,0.019401975,0,-38.36274719238281,5.555914402008057,-11.004989624023438,-0.10010579973459244,0.1236635074019432,-0.048325762152671814,-4.341059684753418,1.2615717649459839,2.0152692794799805
0.0,0.0035194145,0.023917176,0,-38.36375045776367,5.557268142700195,-11.005569458007812,-0.09230715036392212,0.1497672200202942,-0.08788146823644638,-2.04665470123291,0.24155452847480774,-3.954378128051758
0.0,0.0035194145,0.023917176,0,-38.3647346496582,5.5586676597595215,-11.006195068359375,-0.056777473539114,0.19953083992004395,-0.10889959335327148,0.988501787185669,1.1548455953598022,-2.078629732131958
0.0,0.0035194145,0.023917176,0,-38.36598587036133,5.559961795806885,-11.006820678710938,-0.12567806243896484,0.19861701130867004,-0.13162870705127716,0.4167855679988861,0.7904680371284485,-2.2410027980804443
0.0,0.0035194145,0.023917176,0,-38.36701202392578,5.561172962188721,-11.007369995117188,-0.15045088529586792,0.20298455655574799,-0.08483298122882843,1.6756653785705566,1.633280634880066,4.6767964363098145
0.0,0.0035194145,0.023917176,0,-38.3680534362793,5.562289714813232,-11.007904052734375,-0.18828514218330383,0.1405830979347229,-0.04346576705574989,-1.743770718574524,0.61993807554245,4.015232086181641
0.0,0.0035194145,0.023917176,0,-38.368675231933594,5.563508987426758,-11.00848388671875,-0.12299977988004684,0.11073151975870132,-0.018916074186563492,-1.7282445430755615,-0.5412184000015259,2.3639109134674072
0.0,0.0035194145,0.023917176,0,-38.36947250366211,5.564896583557129,-11.009063720703125,-0.08492825925350189,0.10145018994808197,-0.07474208623170853,-0.8310724496841431,-2.2152585983276367,-5.600316524505615
0.0,0.0035194145,0.023917176,0,-38.37013626098633,5.566427707672119,-11.009628295898438,-0.05041556805372238,0.190977081656456,-0.09498288482427597,1.6234874725341797,2.2380595207214355,-1.9257354736328125
0.0,0.0035194145,0.023917176,0,-38.370914459228516,5.567756175994873,-11.0101318359375,-0.03380270302295685,0.1797713339328766,-0.08363279700279236,4.993856430053711,0.5596802830696106,1.1282908916473389
0.0,0.0035194145,0.023917176,0,-38.371734619140625,5.568901062011719,-11.010772705078125,-0.06980808079242706,0.08090519905090332,-0.020444544032216072,2.3550074100494385,-1.8297843933105469,6.181195259094238
0.0,0.003083941,0.021576656,0,-38.372398376464844,5.570305347442627,-11.0113525390625,-0.1207616776227951,0.07009544223546982,-0.01542629674077034,-2.6387336254119873,-0.03686700016260147,0.4876319468021393
0.0,0.003083941,0.021576656,0,-38.372901916503906,5.571596145629883,-11.011947631835938,-0.11273281276226044,0.0587335079908371,-0.036478329449892044,-1.7810859680175781,0.6602790951728821,-2.1805026531219482
0.0,0.003083941,0.021576656,0,-38.37356948852539,5.572801113128662,-11.012725830078125,-0.09645888954401016,0.08441009372472763,-0.05431695654988289,-0.9324603080749512,-1.4223469495773315,-1.6974711418151855
0.0,0.003083941,0.021576656,0,-38.37431335449219,5.573817253112793,-11.013565063476562,-0.062053363770246506,0.07428888976573944,-0.04489514231681824,3.187943458557129,-1.871991515159607,0.9610159993171692
0.0,0.003083941,0.021576656,0,-38.37508010864258,5.574947834014893,-11.014328002929688,-0.09241437911987305,0.11893830448389053,-0.022805672138929367,-0.05969877168536186,1.6082619428634644,2.3290152549743652
0.0,0.003083941,0.021576656,0,-38.37550354003906,5.575831413269043,-11.015228271484375,-0.04835783690214157,0.08708131313323975,-0.016978537663817406,-1.6996328830718994,1.9448542594909668,0.3411983847618103
0.0,0.003083941,0.021576656,0,-38.37587356567383,5.5768632888793945,-11.016036987304688,0.04471298307180405,0.07918411493301392,-0.011984514072537422,0.44070297479629517,-0.2817273437976837,0.26875054836273193
0.0,0.003083941,0.021576656,0,-38.37652587890625,5.578032493591309,-11.016845703125,0.08952530473470688,0.040424756705760956,-0.04135502874851227,1.9263432025909424,-3.0556187629699707,-3.044011354446411
0.0,0.003083941,0.021576656,0,-38.377193450927734,5.579378128051758,-11.017532348632812,0.0722363144159317,0.10250971466302872,-0.06293874233961105,1.170635461807251,-0.6626773476600647,-1.9005522727966309
0.0,0.003083941,0.021576656,0,-38.377967834472656,5.580541133880615,-11.018264770507812,0.057562343776226044,0.10894302278757095,-0.05865270644426346,2.4601151943206787,-0.13482578098773956,0.5497696399688721
0.0,0.0032202762,0.022309415,0,-38.37855911254883,5.581565856933594,-11.01898193359375,0.04042564332485199,0.10215362906455994,-0.021481728181242943,1.3092011213302612,0.5779579281806946,3.7619099617004395
0.0,0.0032202762,0.022309415,0,-38.379119873046875,5.582706928253174,-11.019760131835938,-0.001964495051652193,0.0783299133181572,-0.03738018497824669,-3.009891986846924,-0.22820252180099487,-1.6184780597686768
0.0,0.0032202762,0.022309415,0,-38.37962341308594,5.583922386169434,-11.020370483398438,-0.011412827298045158,0.0993332713842392,-0.06002480536699295,-0.7598109245300293,-1.4194260835647583,-2.166621208190918
0.0,0.0032202762,0.022309415,0,-38.380252838134766,5.585260391235352,-11.021026611328125,-0.039883069694042206,0.17001518607139587,-0.11516185849905014,-0.34709686040878296,1.231092929840088,-5.304450035095215
0.0,0.0032202762,0.022309415,0,-38.38091278076172,5.586382865905762,-11.021591186523438,-0.0734715610742569,0.17641398310661316,-0.07493871450424194,2.583815336227417,0.2925722002983093,4.183903217315674
0.0,0.0032202762,0.022309415,0,-38.38157653808594,5.58738374710083,-11.022262573242188,-0.0880153626203537,0.14739809930324554,-0.04512740299105644,0.6801657676696777,0.9776583909988403,2.936356782913208
0.0,0.0032202762,0.022309415,0,-38.381961822509766,5.588534832000732,-11.022903442382812,-0.09913235157728195,0.10497622936964035,-0.01777251623570919,-3.1753807067871094,-1.3485383987426758,2.6087143421173096
0.0,0.0032202762,0.022309415,0,-38.382442474365234,5.589671611785889,-11.023574829101562,-0.0944908931851387,0.1306101679801941,-0.07528555393218994,-2.914273262023926,-0.010455958545207977,-5.784265518188477
0.0,0.0032202762,0.022309415,0,-38.38269805908203,5.590993881225586,-11.024078369140625,-0.02966061793267727,0.21329711377620697,-0.08428912609815598,0.8553526401519775,0.6558751463890076,-0.889902651309967
0.0,0.0032202762,0.022309415,0,-38.38324737548828,5.591897964477539,-11.024551391601562,-0.020579081028699875,0.203473299741745,-0.08733635395765305,3.1473472118377686,1.7812330722808838,-0.30191242694854736
0.0,0.0038979123,0.02595143,0,-38.383670806884766,5.59293794631958,-11.025100708007812,0.001202452927827835,0.15277396142482758,-0.024663232266902924,4.312230110168457,0.37731441855430603,6.184822082519531
0.0,0.0038979123,0.02595143,0,-38.384273529052734,5.594018936157227,-11.025619506835938,-0.08008445054292679,0.06498986482620239,-0.047422606498003006,-3.192634105682373,-2.222038507461548,-2.3507113456726074
0.0,0.0038979123,0.02595143,0,-38.38481140136719,5.595345497131348,-11.025894165039062,-0.06752921640872955,0.10731154680252075,-0.04828028008341789,-1.7369129657745361,-0.040326111018657684,-0.053149327635765076
0.0,0.0038979123,0.02595143,0,-38.38542175292969,5.596645832061768,-11.026092529296875,-0.0669848620891571,0.13004866242408752,-0.0931786522269249,0.10790927708148956,-0.7812843322753906,-4.426642417907715
0.0,0.0038979123,0.02595143,0,-38.3861198425293,5.5978684425354,-11.02630615234375,-0.05178666114807129,0.16319432854652405,-0.058498725295066833,5.231842994689941,0.2594331204891205,3.60697078704834
0.0,0.0038979123,0.02595143,0,-38.38700485229492,5.599036693572998,-11.0264892578125,-0.16281144320964813,0.14597350358963013,-0.04829582944512367,-3.4119458198547363,1.6619524955749512,1.048876404762268
0.0,0.0038979123,0.02595143,0,-38.387351989746094,5.600212097167969,-11.02667236328125,-0.12191520631313324,0.1320735067129135,-0.02399860881268978,-1.1248130798339844,0.6683979630470276,2.2753875255584717
0.0,0.0038979123,0.02595143,0,-38.38786697387695,5.601474761962891,-11.02679443359375,-0.1173819750547409,0.1308024525642395,-0.03958200663328171,-1.6332823038101196,-0.08491630107164383,-1.6145538091659546
0.0,0.0038979123,0.02595143,0,-38.38812255859375,5.602630138397217,-11.02703857421875,-0.041254352778196335,0.13811828196048737,-0.027475785464048386,1.8145544528961182,0.6369758248329163,1.0808221101760864
0.0,0.0038979123,0.02595143,0,-38.38871383666992,5.603858470916748,-11.027206420898438,-0.05966571718454361,0.11524830013513565,-0.04056090861558914,1.6988468170166016,-1.0342434644699097,-1.27889883518219
0.0,0.0032749732,0.022603394,0,-38.389076232910156,5.60499382019043,-11.027389526367188,-0.0771329402923584,0.11934715509414673,-0.0019245229195803404,-0.018846549093723297,1.5576462745666504,3.8603549003601074
0.0,0.0032749732,0.022603394,0,-38.38908386230469,5.6060590744018555,-11.027542114257812,-0.02512371726334095,0.06798343360424042,0.01789863407611847,-1.562964677810669,0.05472760647535324,1.628648042678833
0.0,0.0032749732,0.022603394,0,-38.3892707824707,5.607165813446045,-11.027725219726562,0.04902117699384689,0.029593095183372498,0.01932322233915329,1.0443867444992065,-1.7129504680633545,-0.1421341449022293
0.0,0.0032749732,0.022603394,0,-38.38949203491211,5.608571529388428,-11.02783203125,0.04787350818514824,0.05176830291748047,-0.027271833270788193,-0.5735277533531189,-2.2925379276275635,-4.51749849319458
0.0,0.0032749732,0.022603394,0,-38.38978958129883,5.609853744506836,-11.027969360351562,0.0519910603761673,0.10411836206912994,-0.03315052017569542,2.9486658573150635,0.9076358675956726,-0.3704160451889038
0.0,0.0032749732,0.022603394,0,-38.39004135131836,5.611021041870117,-11.028060913085938,0.042093466967344284,0.09497032314538956,0.013336998410522938,2.9759857654571533,-0.12670062482357025,4.735105514526367
0.0,0.0032749732,0.022603394,0,-38.39019775390625,5.612013816833496,-11.028228759765625,0.03591131418943405,0.033333659172058105,0.05146520212292671,-1.3307310342788696,-0.6998610496520996,3.581266164779663
0.0,0.0032749732,0.022603394,0,-38.3903923034668,5.6134796142578125,-11.028411865234375,-0.0121298898011446,0.05094593018293381,0.019593793898820877,-4.245542049407959,-1.2154631614685059,-3.0631110668182373
0.0,0.0032749732,0.022603394,0,-38.39060974121094,5.614964008331299,-11.028579711914062,0.010496992617845535,0.11548053473234177,-0.04487670958042145,-1.1011046171188354,0.6073277592658997,-6.382166385650635
0.0,0.0032749732,0.022603394,0,-38.390846252441406,5.616430759429932,-11.028762817382812,0.007426278665661812,0.2000727355480194,-0.0503571443259716,0.8052341341972351,1.544727087020874,-0.321681946516037
0.0,0.003862063,0.025758758,0,-38.39122772216797,5.617508411407471,-11.02899169921875,0.037523943930864334,0.16600097715854645,-0.01835092529654503,4.689607620239258,0.3206704556941986,3.153416395187378
0.0,0.003862063,0.025758758,0,-38.391624450683594,5.61862325668335,-11.029220581054688,-0.016796372830867767,0.10701467841863632,0.023089103400707245,0.9858191013336182,-0.3170265853404999,4.174943447113037
0.0,0.003862063,0.025758758,0,-38.39210891723633,5.619781017303467,-11.029098510742188,-0.05556011199951172,0.06886566430330276,0.017623379826545715,-4.066991329193115,-0.4304306209087372,-0.6823698878288269
0.0,0.003862063,0.025758758,0,-38.39232635498047,5.621106147766113,-11.0289306640625,-0.029590874910354614,0.12064042687416077,-0.015214042738080025,-4.961987495422363,0.4933582842350006,-3.42008113861084
0.0,0.003862063,0.025758758,0,-38.39271926879883,5.622278213500977,-11.028594970703125,0.04566486179828644,0.14572811126708984,-0.016445370391011238,2.630859136581421,-0.1522858887910843,-0.25364428758621216
0.0,0.003862063,0.025758758,0,-38.393104553222656,5.623268127441406,-11.028274536132812,0.10792503505945206,0.12715968489646912,0.007608389016240835,4.859776496887207,-0.24741654098033905,2.2882373332977295
0.0,0.003862063,0.025758758,0,-38.393798828125,5.624269962310791,-11.028030395507812,0.06314903497695923,0.0720284953713417,0.01772424578666687,2.3894004821777344,0.21927636861801147,1.0512772798538208
0.0,0.003862063,0.025758758,0,-38.39418411254883,5.62546443939209,-11.027740478515625,0.0013505760580301285,0.05191110074520111,0.007636329159140587,-3.8845057487487793,-1.046764850616455,-0.9946748614311218
0.0,0.003862063,0.025758758,0,-38.39442443847656,5.626631736755371,-11.027450561523438,0.052930768579244614,0.06912926584482193,-0.017690075561404228,-0.3320866525173187,-1.533233642578125,-2.634286880493164
0.0,0.0029189647,0.020689953,0,-38.39479064941406,5.627811431884766,-11.027084350585938,0.10187813639640808,0.09806778281927109,0.0009338370291516185,4.05341911315918,-0.7020069360733032,1.9099398851394653
