pathtime,mj_vx,mj_vy,cc_tgt,px,py,pz,vx,vy,vz,ax,ay,az
0,0.0,0.0,0,-0.030384967103600502,0.07775834202766418,-2.5910797119140625,0.019713182002305984,-0.03953424096107483,0.002497405046597123,0.011498904787003994,-0.0599013976752758,-0.011049210093915462
0,0.0,0.0,0,-0.03056657686829567,0.07783996313810349,-2.59100341796875,0.019583847373723984,-0.03976213559508324,0.0024604261852800846,0.014694497920572758,-0.06385485082864761,-0.005989800672978163
0,0.0,0.0,0,-0.030740877613425255,0.07790906727313995,-2.5909271240234375,0.019485151395201683,-0.039862412959337234,0.0024342171382158995,0.01767878606915474,-0.04686472564935684,-0.004607252310961485
0,0.0,0.0,0,-0.031067529693245888,0.0780121237039566,-2.590789794921875,0.019352613016963005,-0.0401097871363163,0.002308799186721444,0.021219998598098755,-0.04969487711787224,-0.006793066393584013
0,0.0,0.0,0,-0.031251534819602966,0.07807797938585281,-2.5906829833984375,0.019288230687379837,-0.04027388244867325,0.0023189939092844725,0.022723741829395294,-0.05512864142656326,-0.0004940665676258504
0,0.0,0.0,0,-0.031427767127752304,0.07813183963298798,-2.5905914306640625,0.019230589270591736,-0.040359169244766235,0.0022462334018200636,0.02271876111626625,-0.044258963316679,-0.010815448127686977
0,0.0,0.0,0,-0.03159670904278755,0.07817428559064865,-2.5904998779296875,0.019107382744550705,-0.04045797139406204,0.002190530067309737,0.01369765866547823,-0.04495587199926376,-0.008636618964374065
0,0.0,0.0,0,-0.031758565455675125,0.07820530235767365,-2.5904083251953125,0.01903984509408474,-0.040612246841192245,0.0021628953982144594,0.0198526531457901,-0.05092361569404602,-0.005082692485302687
0,0.0,0.0,0,-0.031932249665260315,0.07825713604688644,-2.590301513671875,0.01899670623242855,-0.040727775543928146,0.002032842254266143,0.023331133648753166,-0.04871772229671478,-0.01816497929394245
0,0.0,0.0,0,-0.03225623443722725,0.07832787930965424,-2.590118408203125,0.01891779527068138,-0.0408991277217865,0.0018763529369607568,0.018991325050592422,-0.04008011892437935,-0.011176335625350475
0,0.0,0.0,0,-0.03240717574954033,0.07834640145301819,-2.5900115966796875,0.018868574872612953,-0.04110471159219742,0.0017725314246490598,0.020199742168188095,-0.057174865156412125,-0.015014315955340862
0,0.0,0.0,0,-0.03270546346902847,0.07839003205299377,-2.589813232421875,0.01880241371691227,-0.04140137881040573,0.0016451746923848987,0.018696855753660202,-0.04993176460266113,-0.00814115535467863
0,0.0,0.0,0,-0.03285270929336548,0.07841512560844421,-2.5897216796875,0.018789643421769142,-0.04155326262116432,0.0015325361164286733,0.023510267958045006,-0.05218813568353653,-0.015561933629214764
0,0.0,0.0,0,-0.03299236297607422,0.07842863351106644,-2.589630126953125,0.01880580373108387,-0.04175744205713272,0.0014245088677853346,0.026420902460813522,-0.05774233862757683,-0.014945398084819317
0,0.0,0.0,0,-0.033124495297670364,0.07843054831027985,-2.58953857421875,0.018846454098820686,-0.04195357486605644,0.0013243691064417362,0.02879435196518898,-0.05578075349330902,-0.013920477591454983
0,0.0,0.0,0,-0.033275045454502106,0.07846180349588394,-2.5894622802734375,0.018856333568692207,-0.042124632745981216,0.0012504725018516183,0.025937002152204514,-0.05621730908751488,-0.010624526999890804
0,0.0,0.0,0,-0.03355284035205841,0.07849115133285522,-2.5893096923828125,0.01886913925409317,-0.042402055114507675,0.001104944502003491,0.025456015020608902,-0.051639776676893234,-0.01003639679402113
0,0.0,0.0,0,-0.033680371940135956,0.078489288687706,-2.5892333984375,0.01891520991921425,-0.04251505807042122,0.0009853921364992857,0.02838394232094288,-0.04612264037132263,-0.015859490260481834
0,0.0,0.0,0,-0.03383265435695648,0.07851966470479965,-2.58917236328125,0.01892499253153801,-0.042635079473257065,0.0009106707875616848,0.0255444198846817,-0.0508623830974102,-0.009614973329007626
0,0.0,0.0,0,-0.03411348536610603,0.07854602485895157,-2.5890655517578125,0.018957914784550667,-0.04289994016289711,0.0007225738372653723,0.02529764547944069,-0.045434918254613876,-0.01228134986013174
0,0.0,0.0,0,-0.03424234315752983,0.07854299247264862,-2.589019775390625,0.018967734649777412,-0.04297403618693352,0.0006553648854605854,0.02352454699575901,-0.042051270604133606,-0.008659902028739452
0,0.0,0.0,0,-0.03439927101135254,0.07856296747922897,-2.5889739990234375,0.018998943269252777,-0.04310259222984314,0.0005963685107417405,0.028692346066236496,-0.051713813096284866,-0.0071260142140090466
0,0.0,0.0,0,-0.0345478281378746,0.07857149094343185,-2.58892822265625,0.01902201399207115,-0.043259017169475555,0.0005775034660473466,0.026966702193021774,-0.0541522279381752,-0.0019734723027795553
0,0.0,0.0,0,-0.03482016175985336,0.07855696231126785,-2.5888671875,0.019161740317940712,-0.043521299958229065,0.0005645258352160454,0.031526971608400345,-0.04983603581786156,0.0023129393812268972
0,0.0,0.0,0,-0.03496560826897621,0.07856295257806778,-2.588836669921875,0.01924830675125122,-0.043573860079050064,0.0005751599092036486,0.034744009375572205,-0.04197583347558975,0.001859385403804481
0,0.0,0.0,0,-0.035102732479572296,0.07855845987796783,-2.58880615234375,0.019309155642986298,-0.04366777464747429,0.0005016534705646336,0.03084190934896469,-0.04610862955451012,-0.008675734512507915
0,0.0,0.0,0,-0.03523154929280281,0.07854334264993668,-2.588775634765625,0.01938643306493759,-0.04379497468471527,0.00047790040844120085,0.03222566470503807,-0.04925898090004921,-0.0024735925253480673
0,0.0,0.0,0,-0.03548680990934372,0.07851666212081909,-2.588714599609375,0.01958346739411354,-0.044146597385406494,0.0003168349794577807,0.035062525421381,-0.04986531287431717,-0.0072172838263213634
0,0.0,0.0,0,-0.03561307489871979,0.07850503921508789,-2.58868408203125,0.01966378465294838,-0.044317759573459625,0.00023233775573316962,0.03260749951004982,-0.055840592831373215,-0.010030808858573437
0.0,0.0025973802,0.0189615,0,-0.03573111072182655,0.07848332822322845,-2.588653564453125,0.0197428148239851,-0.04443209245800972,0.00015784664719831198,0.03176090493798256,-0.047901321202516556,-0.008797272108495235
0.0,0.0025973802,0.0189615,0,-0.03584101423621178,0.07845141738653183,-2.588623046875,0.01985008455812931,-0.04453638195991516,9.222791413776577e-05,0.03465483710169792,-0.04565783962607384,-0.007705296855419874
0.0,0.0025973802,0.0189615,0,-0.036108747124671936,0.07844377309083939,-2.58856201171875,0.019998127594590187,-0.044758379459381104,-8.25627357698977e-05,0.030476903542876244,-0.0476691760122776,-0.011436640284955502
0.0,0.0025973802,0.0189615,0,-0.03623020276427269,0.078423872590065,-2.5885467529296875,0.020087292417883873,-0.04488222301006317,-0.00020144888549111784,0.03430049866437912,-0.049983780831098557,-0.014186370186507702
0.0,0.0025973802,0.0189615,0,-0.036343738436698914,0.0783936083316803,-2.5885162353515625,0.020133083686232567,-0.04497995972633362,-0.0002913575735874474,0.028208700940012932,-0.04570983350276947,-0.010585877113044262
0.0,0.0025973802,0.0189615,0,-0.036495134234428406,0.07840440422296524,-2.5884857177734375,0.020223461091518402,-0.04502873122692108,-0.000358208199031651,0.037516310811042786,-0.04428465664386749,-0.008051282726228237
0.0,0.0025973802,0.0189615,0,-0.03677274286746979,0.07839389145374298,-2.588409423828125,0.020307745784521103,-0.045184094458818436,-0.0009416522807441652,0.0362720713019371,-0.04451792314648628,-0.06458907574415207
0.0,0.0025973802,0.0189615,0,-0.036898933351039886,0.0783737376332283,-2.58837890625,0.020335400477051735,-0.04525056108832359,-0.002657343400642276,0.02745676040649414,-0.0434335432946682,-0.214188352227211
0.0,0.0025973802,0.0189615,0,-0.037017159163951874,0.07834319770336151,-2.58837890625,0.020425019785761833,-0.04539022222161293,-0.005867409519851208,0.034510474652051926,-0.05155600607395172,-0.4009953439235687
0.0,0.0025973802,0.0189615,0,-0.03716103732585907,0.07834652811288834,-2.5883941650390625,0.020538056269288063,-0.045425184071063995,-0.010793515481054783,0.04017401486635208,-0.042505525052547455,-0.6157163977622986
0.0,0.002608783,0.019022789,0,-0.0372958779335022,0.07833972573280334,-2.588470458984375,0.02067534811794758,-0.04540127143263817,-0.01732693798840046,0.042458221316337585,-0.034040458500385284,-0.8166348338127136
0.0,0.002608783,0.019022789,0,-0.03753865137696266,0.07829806208610535,-2.588775634765625,0.0209574643522501,-0.04520411416888237,-0.029916400089859962,0.03957590088248253,-0.01599973253905773,-0.7030972838401794
0.0,0.002608783,0.019022789,0,-0.037687357515096664,0.07828876376152039,-2.5889739990234375,0.021098485216498375,-0.04499503970146179,-0.03322534263134003,0.04498017951846123,-0.010457644239068031,-0.4138769209384918
0.0,0.002608783,0.019022789,0,-0.03782688453793526,0.0782720074057579,-2.589202880859375,0.021206455305218697,-0.04462080076336861,-0.034062597900629044,0.04006773605942726,0.01125195063650608,-0.10491115599870682
0.0,0.002608783,0.019022789,0,-0.038078825920820236,0.07822126895189285,-2.5896148681640625,0.021507631987333298,-0.04364013671875,-0.028665155172348022,0.045667387545108795,0.03584519401192665,0.4689711928367615
0.0,0.002608783,0.019022789,0,-0.03822546452283859,0.0782100111246109,-2.5897979736328125,0.0216657817363739,-0.042917970567941666,-0.0235068891197443,0.0477486215531826,0.05557286739349365,0.6450958847999573
0.0,0.002608783,0.019022789,0,-0.03836258500814438,0.07819560915231705,-2.5899200439453125,0.02183634042739868,-0.042083319276571274,-0.01746376045048237,0.04850281774997711,0.0706469863653183,0.7556923031806946
0.0,0.002608783,0.019022789,0,-0.03849035128951073,0.07817907631397247,-2.589996337890625,0.021975509822368622,-0.04116218909621239,-0.010676509700715542,0.043804462999105453,0.0824437215924263,0.8487966060638428
0.0,0.002608783,0.019022789,0,-0.038738980889320374,0.07816720753908157,-2.589996337890625,0.022341877222061157,-0.03893421217799187,0.004166513681411743,0.0494401790201664,0.11641909927129745,0.9531177878379822
0.0,0.002608783,0.019022789,0,-0.038859594613313675,0.0781739354133606,-2.5899200439453125,0.02249843254685402,-0.037634894251823425,0.012009656988084316,0.04586467146873474,0.13027790188789368,0.9819585084915161
0.0,0.0025587284,0.018753752,0,-0.038971174508333206,0.07818282395601273,-2.5897674560546875,0.022668538615107536,-0.03615129366517067,0.020001700147986412,0.046809010207653046,0.15426026284694672,1.0005234479904175
0.0,0.0025587284,0.018753752,0,-0.039073895663022995,0.07819529622793198,-2.589569091796875,0.02282053977251053,-0.03456775099039078,0.028057195246219635,0.04381631687283516,0.16767466068267822,1.008409023284912
0.0,0.0025587284,0.018753752,0,-0.03917219862341881,0.07823650538921356,-2.58929443359375,0.022994529455900192,-0.03287024796009064,0.036152295768260956,0.046190038323402405,0.18018712103366852,1.0135778188705444
0.0,0.0025587284,0.018753752,0,-0.03934327885508537,0.07833587378263474,-2.58856201171875,0.023283518850803375,-0.0290937889367342,0.05209929496049881,0.041622430086135864,0.2096998691558838,0.9948154091835022
0.0,0.0025587284,0.018753752,0,-0.03941670060157776,0.07839596271514893,-2.588104248046875,0.023369109258055687,-0.027054358273744583,0.05991186201572418,0.033124566078186035,0.22575092315673828,0.9781116843223572
0.0,0.0025587284,0.018753752,0,-0.03948011249303818,0.07850301265716553,-2.587554931640625,0.023504262790083885,-0.02482338808476925,0.06755513697862625,0.03844265639781952,0.24629874527454376,0.955487072467804
0.0,0.0025587284,0.018753752,0,-0.03958548232913017,0.07874563336372375,-2.586273193359375,0.02356671169400215,-0.020028533414006233,0.08238842338323593,0.024672117084264755,0.2783154845237732,0.9164344072341919
0.0,0.0025587284,0.018753752,0,-0.03962824121117592,0.0788835734128952,-2.5855560302734375,0.02358236163854599,-0.017486197873950005,0.08956068754196167,0.021762724965810776,0.28829291462898254,0.896597683429718
0.0,0.0025587284,0.018753752,0,-0.03966004028916359,0.07907962054014206,-2.5847320556640625,0.023573648184537888,-0.014827306382358074,0.0965123400092125,0.018015187233686447,0.29858478903770447,0.8661289811134338
0.0,0.0025587284,0.018753752,0,-0.03968610614538193,0.07928822934627533,-2.5838623046875,0.02350078709423542,-0.01205588411539793,0.10326206684112549,0.009461140260100365,0.3137754797935486,0.8409949541091919
0.0,0.002413413,0.0179727,0,-0.03972388431429863,0.07974625378847122,-2.5819549560546875,0.023197298869490623,-0.006257615517824888,0.11622866988182068,-0.002882634289562702,0.33618152141571045,0.7944525480270386
0.0,0.002413413,0.0179727,0,-0.039731405675411224,0.08004911988973618,-2.5808563232421875,0.022957313805818558,-0.0032700321171432734,0.12238522619009018,-0.01303290855139494,0.3381509780883789,0.7631135582923889
0.0,0.002413413,0.0179727,0,-0.039735738188028336,0.08036629110574722,-2.5797271728515625,0.022642314434051514,-0.0002293944708071649,0.12835422158241272,-0.022902460768818855,0.34597247838974,0.7398537993431091
0.0,0.002413413,0.0179727,0,-0.03973749652504921,0.08069853484630585,-2.57855224609375,0.022302167490124702,0.0028745171148329973,0.13411833345890045,-0.02652987651526928,0.3550415635108948,0.7144240140914917
0.0,0.002413413,0.0179727,0,-0.039735227823257446,0.08141015470027924,-2.5760650634765625,0.02138597145676613,0.009097812697291374,0.14504767954349518,-0.0468941256403923,0.35586071014404297,0.6648827791213989
0.0,0.002413413,0.0179727,0,-0.03973701223731041,0.08185847848653793,-2.57470703125,0.020806973800063133,0.012275423854589462,0.15024511516094208,-0.0569954514503479,0.35975807905197144,0.6402949690818787
0.0,0.002413413,0.0179727,0,-0.03973855450749397,0.08232197910547256,-2.57330322265625,0.020192554220557213,0.015446172095835209,0.1552457958459854,-0.061901673674583435,0.3601436913013458,0.6159725189208984
0.0,0.002413413,0.0179727,0,-0.03974028676748276,0.08280090242624283,-2.571868896484375,0.01954941265285015,0.018615135923027992,0.15998026728630066,-0.0659642145037651,0.36112669110298157,0.582958996295929
0.0,0.002413413,0.0179727,0,-0.039744362235069275,0.08387735486030579,-2.56884765625,0.01793850027024746,0.02487843669950962,0.16895292699337006,-0.09505829960107803,0.3550240099430084,0.538897693157196
0.0,0.002413413,0.0179727,0,-0.03974851593375206,0.08447373658418655,-2.5672607421875,0.01703539490699768,0.027971310541033745,0.17316633462905884,-0.09975533932447433,0.34715592861175537,0.5153575539588928
0.0,0.002466239,0.018256633,0,-0.03975559398531914,0.08508417010307312,-2.5656585693359375,0.016125453636050224,0.03105989098548889,0.17720972001552582,-0.10106096416711807,0.3478882610797882,0.49442794919013977
0.0,0.002466239,0.018256633,0,-0.03976571932435036,0.08570842444896698,-2.5640106201171875,0.015156826004385948,0.03402625396847725,0.18102940917015076,-0.10884144902229309,0.33383652567863464,0.46662285923957825
0.0,0.002466239,0.018256633,0,-0.039832428097724915,0.08712689578533173,-2.560546875,0.012978029437363148,0.03999127075076103,0.18806667625904083,-0.12216073274612427,0.3242495059967041,0.4172874391078949
0.0,0.002466239,0.018256633,0,-0.03987383469939232,0.0878545343875885,-2.5587921142578125,0.011915352195501328,0.04286748170852661,0.19135667383670807,-0.11942534148693085,0.31927791237831116,0.39878949522972107
0.0,0.002466239,0.018256633,0,-0.03991933912038803,0.08859362453222275,-2.5570068359375,0.010855140164494514,0.04559532180428505,0.19443219900131226,-0.11960048228502274,0.3019756078720093,0.3723366856575012
0.0,0.002466239,0.018256633,0,-0.03998180851340294,0.0893917977809906,-2.55517578125,0.009706192649900913,0.04832349717617035,0.1972760260105133,-0.12999771535396576,0.29802629351615906,0.34159839153289795
0.0,0.002466239,0.018256633,0,-0.04012089967727661,0.09101783484220505,-2.55145263671875,0.007362269330769777,0.053530123084783554,0.20236842334270477,-0.13773976266384125,0.2814013957977295,0.29119986295700073
0.0,0.002466239,0.018256633,0,-0.040198180824518204,0.09184465557336807,-2.5495758056640625,0.006180651020258665,0.05594530329108238,0.2047443836927414,-0.13553069531917572,0.262660413980484,0.284370481967926
0.0,0.002466239,0.018256633,0,-0.04030377045273781,0.09273488819599152,-2.5476531982421875,0.004979424178600311,0.05836055800318718,0.2069818377494812,-0.1358039379119873,0.25777915120124817,0.26579898595809937
0.0,0.002681467,0.01941345,0,-0.04041439667344093,0.09363199770450592,-2.5457305908203125,0.00377247529104352,0.06058143451809883,0.2087579220533371,-0.13703808188438416,0.23476777970790863,0.20852357149124146
0.0,0.002681467,0.01941345,0,-0.040658701211214066,0.09544282406568527,-2.5418701171875,0.0013142779935151339,0.06471385806798935,0.20973655581474304,-0.1427612155675888,0.21384704113006592,-0.015300697647035122
0.0,0.002681467,0.01941345,0,-0.040822070091962814,0.09640815109014511,-2.5399169921875,0.00010128263966180384,0.06672124564647675,0.20858453214168549,-0.1345624178647995,0.20613348484039307,-0.15809060633182526
0.0,0.002681467,0.01941345,0,-0.040990207344293594,0.09737742692232132,-2.537994384765625,-0.001125828013755381,0.06861791759729385,0.2061081975698471,-0.1369101107120514,0.19355687499046326,-0.32322806119918823
0.0,0.002681467,0.01941345,0,-0.04116325452923775,0.09834993630647659,-2.536102294921875,-0.0023410909343510866,0.07040110975503922,0.20218545198440552,-0.1359938085079193,0.18059392273426056,-0.5034012198448181
0.0,0.002681467,0.01941345,0,-0.04134080186486244,0.09932535886764526,-2.5342559814453125,-0.003467648522928357,0.0721389427781105,0.19674061238765717,-0.12545245885849,0.17610123753547668,-0.6932904720306396
0.0,0.002681467,0.01941345,0,-0.04155788570642471,0.10036607086658478,-2.532440185546875,-0.004632582422345877,0.07377762347459793,0.1897006779909134,-0.12704354524612427,0.15802203118801117,-0.8940221071243286
0.0,0.002681467,0.01941345,0,-0.04200635105371475,0.10244660824537277,-2.5290069580078125,-0.006852969992905855,0.07653498649597168,0.17052052915096283,-0.11835863441228867,0.12138515710830688,-1.3179759979248047
0.0,0.002681467,0.01941345,0,-0.042237188667058945,0.10348495095968246,-2.527435302734375,-0.007852686569094658,0.07775810360908508,0.15825530886650085,-0.10755109041929245,0.10991358757019043,-1.5460177659988403
0.0,0.002681467,0.01941345,0,-0.04278268665075302,0.10568564385175705,-2.52459716796875,-0.009797892533242702,0.07992224395275116,0.1285220980644226,-0.09539331495761871,0.07591941952705383,-1.9619426727294922
0.0,0.002864406,0.020396713,0,-0.0430578775703907,0.10677915066480637,-2.5233917236328125,-0.01062351930886507,0.08074408024549484,0.1123138889670372,-0.08333467692136765,0.0563366562128067,-2.03810715675354
0.0,0.002864406,0.020396713,0,-0.043333835899829865,0.10786698013544083,-2.5223236083984375,-0.01136031374335289,0.081438347697258,0.09599602967500687,-0.07284104824066162,0.04162159934639931,-2.05147123336792
0.0,0.002864406,0.020396713,0,-0.043609973043203354,0.10894820094108582,-2.521392822265625,-0.011981789022684097,0.08198711276054382,0.07994887977838516,-0.059014949947595596,0.024626292288303375,-2.0172994136810303
0.0,0.002864406,0.020396713,0,-0.04425439611077309,0.11119899153709412,-2.5199432373046875,-0.012976053170859814,0.08264178782701492,0.04959757998585701,-0.03207647055387497,-0.01639406755566597,-1.8615647554397583
0.0,0.002864406,0.020396713,0,-0.044574424624443054,0.11230862140655518,-2.5194091796875,-0.013268517330288887,0.08273345232009888,0.035658787935972214,-0.014003777876496315,-0.03447136655449867,-1.7514349222183228
0.0,0.002864406,0.020396713,0,-0.044890761375427246,0.11340654641389847,-2.51898193359375,-0.013523955829441547,0.08265427500009537,0.02260236069560051,-0.010025285184383392,-0.05462688207626343,-1.6408817768096924
0.0,0.002864406,0.020396713,0,-0.045247871428728104,0.11455155164003372,-2.5187225341796875,-0.013735171407461166,0.08248697966337204,0.010398129001259804,0.00014101623673923314,-0.07032299786806107,-1.5297904014587402
0.0,0.002864406,0.020396713,0,-0.045944713056087494,0.11679799854755402,-2.5184783935546875,-0.013769860379397869,0.08180829882621765,-0.011420328170061111,0.025765109807252884,-0.09827042371034622,-1.3131688833236694
0.0,0.002864406,0.020396713,0,-0.04628324136137962,0.11789792776107788,-2.51849365234375,-0.013614981435239315,0.08125625550746918,-0.02113351970911026,0.043750494718551636,-0.11468613892793655,-1.2180641889572144
0.0,0.002864406,0.020396713,0,-0.046646494418382645,0.11902806907892227,-2.5186614990234375,-0.013405920006334782,0.08063464611768723,-0.030193490907549858,0.054012130945920944,-0.1266770213842392,-1.1307038068771362
0.0,0.0028745823,0.020451406,0,-0.04700092971324921,0.12014015763998032,-2.518890380859375,-0.0130304004997015,0.07986822724342346,-0.038586776703596115,0.07406795769929886,-0.14353059232234955,-1.0474234819412231
0.0,0.0028745823,0.020451406,0,-0.047345757484436035,0.12123341858386993,-2.519195556640625,-0.012618937529623508,0.07898461073637009,-0.04625280201435089,0.07783777266740799,-0.15697282552719116,-0.9565688371658325
0.0,0.0028745823,0.020451406,0,-0.04768139123916626,0.12230748683214188,-2.519561767578125,-0.012090638279914856,0.07797294110059738,-0.053333830088377,0.09184711426496506,-0.17188967764377594,-0.8834949135780334
0.0,0.0028745823,0.020451406,0,-0.04837745428085327,0.12448975443840027,-2.5206146240234375,-0.010683191008865833,0.07588684558868408,-0.06603942066431046,0.125056654214859,-0.1811838299036026,-0.7580941915512085
0.0,0.0028745823,0.020451406,0,-0.048706263303756714,0.1255493313074112,-2.5212249755859375,-0.009766676463186741,0.07469736784696579,-0.07171796262264252,0.14242035150527954,-0.1951100081205368,-0.7030367255210876
0.0,0.0028745823,0.020451406,0,-0.0490216501057148,0.12658707797527313,-2.5218505859375,-0.008865045383572578,0.07342201471328735,-0.07703977078199387,0.13985775411128998,-0.20470373332500458,-0.6586419939994812
0.0,0.0028745823,0.020451406,0,-0.04934270679950714,0.12764087319374084,-2.522613525390625,-0.007846217602491379,0.07205599546432495,-0.08205483108758926,0.15712633728981018,-0.21822677552700043,-0.6159571409225464
0.0,0.0028745823,0.020451406,0,-0.049938905984163284,0.12967786192893982,-2.52423095703125,-0.005416658706963062,0.06913300603628159,-0.09119626879692078,0.1850368231534958,-0.23352186381816864,-0.5460148453712463
0.0,0.0028745823,0.020451406,0,-0.05021267011761665,0.1306607723236084,-2.52508544921875,-0.004062089137732983,0.06762642413377762,-0.09539249539375305,0.19693559408187866,-0.2323693186044693,-0.5144285559654236
0.0,0.0028745823,0.020451406,0,-0.05075161159038544,0.1326398104429245,-2.5270233154296875,-0.0011991442879661918,0.06442343443632126,-0.10330577194690704,0.21370330452919006,-0.24749700725078583,-0.4700813293457031
0.1,0.011506259,0.076826714,0,-0.05099402368068695,0.13359206914901733,-2.5280303955078125,0.00041273649549111724,0.06280271708965302,-0.10706217586994171,0.23002377152442932,-0.24775978922843933,-0.45671311020851135
0.1,0.011506259,0.076826714,0,-0.05121719464659691,0.13451942801475525,-2.5290679931640625,0.002135287271812558,0.061096202582120895,-0.11074293404817581,0.24315384030342102,-0.2573474645614624,-0.4476248025894165
0.1,0.011506259,0.076826714,0,-0.05143153294920921,0.13545019924640656,-2.5301971435546875,0.003898691153153777,0.05934830754995346,-0.11434587836265564,0.2499426007270813,-0.26442912220954895,-0.435126930475235
0.1,0.011506259,0.076826714,0,-0.05179944634437561,0.1372339427471161,-2.532501220703125,0.007647408172488213,0.05578996613621712,-0.12127765268087387,0.2696089446544647,-0.26209843158721924,-0.41719895601272583
0.1,0.011506259,0.076826714,0,-0.05195200443267822,0.1380874365568161,-2.5336761474609375,0.009620084427297115,0.053946610540151596,-0.12467383593320847,0.27395933866500854,-0.2729188799858093,-0.41075560450553894
0.1,0.011506259,0.076826714,0,-0.05208633467555046,0.13894203305244446,-2.534912109375,0.011680454947054386,0.052140023559331894,-0.1280651092529297,0.28511372208595276,-0.2704927921295166,-0.4091462790966034
0.1,0.011506259,0.076826714,0,-0.052198510617017746,0.13977085053920746,-2.5361785888671875,0.01384048629552126,0.05032378435134888,-0.13136589527130127,0.2968828082084656,-0.2705371379852295,-0.3982563316822052
0.1,0.011506259,0.076826714,0,-0.05228795111179352,0.1405741572380066,-2.5374603271484375,0.016063204035162926,0.048509564250707626,-0.13470019400119781,0.30404549837112427,-0.26914602518081665,-0.402852863073349
0.1,0.011506259,0.076826714,0,-0.05235419049859047,0.1413518339395523,-2.53875732421875,0.01836814358830452,0.04663030803203583,-0.13795162737369537,0.3136647045612335,-0.2761595547199249,-0.39289191365242004
0.1,0.011386842,0.0761854,0,-0.052428390830755234,0.14284493029117584,-2.5414581298828125,0.023076146841049194,0.04314601048827171,-0.14453235268592834,0.32692885398864746,-0.2544976472854614,-0.3979913592338562
0.1,0.011386842,0.0761854,0,-0.05243537947535515,0.14356166124343872,-2.5428466796875,0.02551695518195629,0.04147208109498024,-0.14778411388397217,0.3309789001941681,-0.24900132417678833,-0.3932425379753113
0.1,0.011386842,0.0761854,0,-0.052374217659235,0.14492559432983398,-2.5456695556640625,0.030703401193022728,0.038294289261102676,-0.15408700704574585,0.35562753677368164,-0.2307402789592743,-0.3849537670612335
0.1,0.011386842,0.0761854,0,-0.052283402532339096,0.145586758852005,-2.547149658203125,0.033403269946575165,0.03679484501481056,-0.15725356340408325,0.35978010296821594,-0.22606128454208374,-0.3823102116584778
0.1,0.011386842,0.0761854,0,-0.05216698721051216,0.14622654020786285,-2.5486602783203125,0.0360683798789978,0.035388872027397156,-0.1603190302848816,0.3548539876937866,-0.2133178859949112,-0.37005868554115295
0.1,0.011386842,0.0761854,0,-0.05202508717775345,0.14684569835662842,-2.5501708984375,0.038808681070804596,0.034054774791002274,-0.16335918009281158,0.36368438601493835,-0.20329800248146057,-0.36726704239845276
0.1,0.011386842,0.0761854,0,-0.05163547024130821,0.148028165102005,-2.5532989501953125,0.04433320835232735,0.03177797794342041,-0.16920888423919678,0.3663500249385834,-0.1699492335319519,-0.3509092926979065
0.1,0.011386842,0.0761854,0,-0.051388051360845566,0.14859355986118317,-2.5548858642578125,0.04716199263930321,0.030773045495152473,-0.17202726006507874,0.37096163630485535,-0.15955734252929688,-0.33997973799705505
0.1,0.011386842,0.0761854,0,-0.05111512914299965,0.14914266765117645,-2.556488037109375,0.04995520040392876,0.029927926138043404,-0.17475435137748718,0.36604422330856323,-0.13861967623233795,-0.32892122864723206
0.1,0.011386842,0.0761854,0,-0.05081678554415703,0.1496768444776535,-2.55810546875,0.05274641886353493,0.029194355010986328,-0.17732837796211243,0.36533334851264954,-0.12373440712690353,-0.31012994050979614
0.1,0.011471662,0.07664091,0,-0.050465408712625504,0.15019653737545013,-2.55975341796875,0.0555240735411644,0.028525805100798607,-0.17979858815670013,0.36079150438308716,-0.11481761932373047,-0.29749608039855957
0.1,0.011471662,0.07664091,0,-0.049686942249536514,0.15120337903499603,-2.5630950927734375,0.06103646010160446,0.027585627511143684,-0.1844167560338974,0.35976842045783997,-0.07575930655002594,-0.27010494470596313
0.1,0.011471662,0.07664091,0,-0.04926100745797157,0.1516900658607483,-2.5647735595703125,0.06378978490829468,0.027257468551397324,-0.18654897809028625,0.356121301651001,-0.07032531499862671,-0.2561914622783661
0.1,0.011471662,0.07664091,0,-0.048780109733343124,0.15215952694416046,-2.566497802734375,0.06646762788295746,0.02694771997630596,-0.18854588270187378,0.3434807062149048,-0.06629437953233719,-0.23935455083847046
0.1,0.011471662,0.07664091,0,-0.047749560326337814,0.15307146310806274,-2.5699615478515625,0.07173490524291992,0.02678270824253559,-0.19205258786678314,0.33114883303642273,-0.02895861491560936,-0.20266090333461761
0.1,0.011471662,0.07664091,0,-0.04720085486769676,0.1535159945487976,-2.57171630859375,0.07428716868162155,0.026791533455252647,-0.19354867935180664,0.3270030915737152,-0.023962272331118584,-0.17761577665805817
0.1,0.011471662,0.07664091,0,-0.04661010578274727,0.15395057201385498,-2.573486328125,0.07683219015598297,0.026866095140576363,-0.19491983950138092,0.3238641917705536,-0.014443510212004185,-0.1615942418575287
0.1,0.011471662,0.07664091,0,-0.045997973531484604,0.15437914431095123,-2.5752716064453125,0.07935527712106705,0.027020450681447983,-0.1961464136838913,0.32092541456222534,-0.0036555244587361813,-0.14380736649036407
0.1,0.011471662,0.07664091,0,-0.044710855931043625,0.1552271991968155,-2.578857421875,0.08413565903902054,0.02752699702978134,-0.19809313118457794,0.30243831872940063,0.016266897320747375,-0.1026475727558136
0.1,0.011471662,0.07664091,0,-0.044004298746585846,0.15565992891788483,-2.5806427001953125,0.08648545295000076,0.027848120778799057,-0.19885686039924622,0.29508069157600403,0.017444390803575516,-0.08639878779649734
0.1,0.011726664,0.078010336,0,-0.04327875375747681,0.15608830749988556,-2.5824432373046875,0.08877214789390564,0.028206728398799896,-0.19935844838619232,0.2870735228061676,0.022951072081923485,-0.0538988932967186
0.1,0.011726664,0.078010336,0,-0.0425347201526165,0.1565132886171341,-2.5842437744140625,0.09100283682346344,0.028726376593112946,-0.19966796040534973,0.2799430787563324,0.04388537257909775,-0.03014504723250866
0.1,0.011726664,0.078010336,0,-0.040959808975458145,0.15737634897232056,-2.5878448486328125,0.0953889861702919,0.029837917536497116,-0.19973070919513702,0.2681184411048889,0.05201917886734009,0.014309770427644253
0.1,0.011726664,0.078010336,0,-0.04013065621256828,0.1578146517276764,-2.5896453857421875,0.09742888063192368,0.03046625666320324,-0.199580579996109,0.252609521150589,0.05806659162044525,0.0272532906383276
0.1,0.011726664,0.078010336,0,-0.03928619995713234,0.15825437009334564,-2.5914459228515625,0.09945288300514221,0.03110792301595211,-0.19921480119228363,0.2505166232585907,0.059809938073158264,0.05395989492535591
0.1,0.011726664,0.078010336,0,-0.03842602297663689,0.15869267284870148,-2.5932159423828125,0.10139698535203934,0.03178977966308594,-0.1986679583787918,0.24045602977275848,0.06560321897268295,0.07612816244363785
0.1,0.011726664,0.078010336,0,-0.03664602339267731,0.15960615873336792,-2.596771240234375,0.10517246276140213,0.0332736112177372,-0.19694359600543976,0.23243644833564758,0.07836339622735977,0.12419325113296509
0.1,0.011726664,0.078010336,0,-0.035727374255657196,0.16008177399635315,-2.598541259765625,0.10690920799970627,0.03408841788768768,-0.1958688497543335,0.21335816383361816,0.0803360864520073,0.14241644740104675
0.1,0.011726664,0.078010336,0,-0.03479520604014397,0.16055674850940704,-2.6002960205078125,0.10865192860364914,0.0348915196955204,-0.19462312757968903,0.2140449583530426,0.07965610176324844,0.16354721784591675
0.1,0.011726664,0.078010336,0,-0.03384963795542717,0.161031112074852,-2.60205078125,0.11030768603086472,0.035677019506692886,-0.19314467906951904,0.20310993492603302,0.07821425050497055,0.19240331649780273
0.1,0.011935827,0.079133555,0,-0.031917113810777664,0.16205109655857086,-2.60552978515625,0.11351633816957474,0.037356823682785034,-0.18982535600662231,0.19246704876422882,0.08297929167747498,0.23013165593147278
0.1,0.011935827,0.079133555,0,-0.03093431517481804,0.16256354749202728,-2.60723876953125,0.11501237004995346,0.03830839321017265,-0.18791265785694122,0.18315531313419342,0.09696946293115616,0.2469261884689331
0.1,0.011935827,0.079133555,0,-0.02994031086564064,0.16307593882083893,-2.6089324951171875,0.1163581907749176,0.0391366071999073,-0.18588626384735107,0.16430485248565674,0.08232233673334122,0.26090487837791443
0.1,0.011935827,0.079133555,0,-0.02893158234655857,0.16362790763378143,-2.610626220703125,0.11770273000001907,0.039962951093912125,-0.18366003036499023,0.1636427938938141,0.0787183940410614,0.2868105471134186
0.1,0.011935827,0.079133555,0,-0.026882857084274292,0.16472893953323364,-2.61395263671875,0.12030579149723053,0.04169930890202522,-0.17870835959911346,0.15485550463199615,0.08851316571235657,0.3278823494911194
0.1,0.011935827,0.079133555,0,-0.025843540206551552,0.1652785837650299,-2.615570068359375,0.12152016907930374,0.04253176599740982,-0.17596517503261566,0.14720378816127777,0.08188443630933762,0.35068950057029724
0.1,0.011935827,0.079133555,0,-0.02479369565844536,0.16586819291114807,-2.6171875,0.12269318103790283,0.043428853154182434,-0.17307955026626587,0.14170028269290924,0.08666487783193588,0.36902397871017456
0.1,0.011935827,0.079133555,0,-0.02373492904007435,0.16645701229572296,-2.6187744140625,0.12380198389291763,0.04432845115661621,-0.17004652321338654,0.1336287558078766,0.08780813962221146,0.38735705614089966
0.1,0.011935827,0.079133555,0,-0.02159465104341507,0.16763457655906677,-2.6218719482421875,0.12585298717021942,0.04597685858607292,-0.1635962277650833,0.12003316730260849,0.07654685527086258,0.42189422249794006
0.1,0.011935827,0.079133555,0,-0.020523101091384888,0.16826358437538147,-2.623382568359375,0.12679584324359894,0.04682985693216324,-0.1601099669933319,0.11391503363847733,0.07960248738527298,0.4433118402957916
0.1,0.012096266,0.079995096,0,-0.01944427378475666,0.1688915640115738,-2.6248626708984375,0.1276336908340454,0.04772244766354561,-0.15659324824810028,0.10072413086891174,0.08540069311857224,0.44689324498176575
0.1,0.012096266,0.079995096,0,-0.018358731642365456,0.16951826214790344,-2.6262969970703125,0.12844859063625336,0.0485432967543602,-0.15291550755500793,0.09779465943574905,0.07725538313388824,0.46680307388305664
0.1,0.012096266,0.079995096,0,-0.016195129603147507,0.1708153486251831,-2.62908935546875,0.12988662719726562,0.0501551553606987,-0.14511962234973907,0.08165180683135986,0.07447121292352676,0.5026137828826904
0.1,0.012096266,0.079995096,0,-0.015117517672479153,0.1714852899312973,-2.63043212890625,0.13056552410125732,0.05101063475012779,-0.1410878300666809,0.08311411738395691,0.07911007851362228,0.5105854868888855
0.1,0.012096266,0.079995096,0,-0.014034097082912922,0.17215368151664734,-2.631744384765625,0.1311352550983429,0.051835864782333374,-0.13689027726650238,0.06935369223356247,0.07617872953414917,0.5311095118522644
0.1,0.012096266,0.079995096,0,-0.0129456901922822,0.17282021045684814,-2.6330108642578125,0.13166490197181702,0.05258002504706383,-0.1326688826084137,0.06423404067754745,0.0668683871626854,0.5338950753211975
0.1,0.012096266,0.079995096,0,-0.010820794850587845,0.17423374950885773,-2.6354522705078125,0.1324450522661209,0.05409328266978264,-0.12388716638088226,0.04525242745876312,0.0652436763048172,0.5588219165802002
0.1,0.012096266,0.079995096,0,-0.009751985780894756,0.17493627965450287,-2.6366119384765625,0.13279107213020325,0.05474482849240303,-0.11941267549991608,0.044144611805677414,0.05333548039197922,0.565208911895752
0.1,0.012096266,0.079995096,0,-0.008679321967065334,0.17563587427139282,-2.637725830078125,0.13308636844158173,0.05543588846921921,-0.11488072574138641,0.03763429820537567,0.05911549925804138,0.5722124576568604
0.1,0.012096266,0.079995096,0,-0.0076165106147527695,0.176369309425354,-2.6388397216796875,0.13331352174282074,0.056127551943063736,-0.1102999895811081,0.030451321974396706,0.05625456944108009,0.5784490704536438
0.1,0.012175343,0.08041973,0,-0.005483279936015606,0.1778271496295929,-2.6409454345703125,0.13347850739955902,0.0575299970805645,-0.10100250691175461,0.008430571295320988,0.05649947375059128,0.5844053626060486
0.1,0.012175343,0.08041973,0,-0.004413810092955828,0.17855176329612732,-2.6419219970703125,0.13351982831954956,0.05819911137223244,-0.09635782986879349,0.006654699798673391,0.05603345111012459,0.5859271287918091
0.1,0.012175343,0.08041973,0,-0.0033448634203523397,0.1792754828929901,-2.6428680419921875,0.13353146612644196,0.05881011113524437,-0.09170355647802353,0.0030040007550269365,0.049195416271686554,0.5869664549827576
0.1,0.012175343,0.08041973,0,-0.002294435165822506,0.18003520369529724,-2.643768310546875,0.13341015577316284,0.0594843365252018,-0.0868634283542633,-0.011734480038285255,0.05348590388894081,0.6095836758613586
0.1,0.012175343,0.08041973,0,-0.0012435673270374537,0.18079175055027008,-2.644622802734375,0.13321605324745178,0.06016451120376587,-0.08200252801179886,-0.02105483040213585,0.05512506514787674,0.6120409369468689
0.1,0.012175343,0.08041973,0,0.0008566333563067019,0.1822950839996338,-2.646209716796875,0.13260479271411896,0.06135221943259239,-0.07236411422491074,-0.03493312746286392,0.040979500859975815,0.6028828024864197
0.1,0.012175343,0.08041973,0,0.0018780853133648634,0.18308278918266296,-2.6469268798828125,0.13226304948329926,0.06194109469652176,-0.06757082045078278,-0.036693159490823746,0.04175005853176117,0.6018425226211548
0.1,0.012175343,0.08041973,0,0.0028984760865569115,0.18386663496494293,-2.6475982666015625,0.131815105676651,0.06258681416511536,-0.06279899924993515,-0.05024745315313339,0.049774982035160065,0.5990736484527588
0.1,0.012175343,0.08041973,0,0.004933482501655817,0.18542374670505524,-2.6488189697265625,0.13078682124614716,0.06373277306556702,-0.0533146895468235,-0.06028091162443161,0.038845568895339966,0.5943439602851868
0.1,0.012175343,0.08041973,0,0.005919783376157284,0.18624237179756165,-2.64935302734375,0.13020044565200806,0.06427626311779022,-0.04864196851849556,-0.06455951184034348,0.03472846373915672,0.5847578644752502
0.1,0.012179971,0.080444574,0,0.006903406698256731,0.1870565414428711,-2.6498565673828125,0.12953877449035645,0.06484979391098022,-0.04408367723226547,-0.07431639730930328,0.03943312168121338,0.5704280734062195
0.1,0.012179971,0.080444574,0,0.007884171791374683,0.18786634504795074,-2.650299072265625,0.12887102365493774,0.0653519555926323,-0.03956650570034981,-0.07540739327669144,0.03143639490008354,0.5649956464767456
0.1,0.012179971,0.080444574,0,0.008861372247338295,0.18867161870002747,-2.65069580078125,0.12809056043624878,0.06588804721832275,-0.0350739061832428,-0.08981704711914062,0.03657577186822891,0.5619078278541565
0.1,0.012179971,0.080444574,0,0.01072586327791214,0.19037675857543945,-2.6513671875,0.12621940672397614,0.0669197142124176,-0.026308193802833557,-0.11239610612392426,0.027523262426257133,0.5408613681793213
0.1,0.012179971,0.080444574,0,0.01165049895644188,0.19122172892093658,-2.651641845703125,0.12517666816711426,0.0674564391374588,-0.022041870281100273,-0.11883725225925446,0.03385119512677193,0.5321041345596313
0.1,0.012179971,0.080444574,0,0.012569736689329147,0.1920616626739502,-2.651885986328125,0.12416473776102066,0.0679057240486145,-0.01780119352042675,-0.1153906062245369,0.023869166150689125,0.5289260149002075
0.1,0.012179971,0.080444574,0,0.013445032760500908,0.19295074045658112,-2.652069091796875,0.12299832701683044,0.06844043731689453,-0.013661554083228111,-0.12992970645427704,0.0298242699354887,0.5142958760261536
0.1,0.012179971,0.080444574,0,0.015175430104136467,0.19471490383148193,-2.6523284912109375,0.12060020864009857,0.06938400119543076,-0.0056015560403466225,-0.13906452059745789,0.022814899682998657,0.49660351872444153
0.1,0.012179971,0.080444574,0,0.016030726954340935,0.19558854401111603,-2.65240478515625,0.11931617558002472,0.0698290541768074,-0.0017257328145205975,-0.1460963636636734,0.02137012593448162,0.4814271628856659
0.1,0.012121961,0.08013307,0,0.016857028007507324,0.19652675092220306,-2.6524200439453125,0.11797493696212769,0.07027774304151535,0.002031551208347082,-0.15031568706035614,0.015451613813638687,0.46452784538269043
0.1,0.012121961,0.08013307,0,0.018487056717276573,0.19838261604309082,-2.6523590087890625,0.11518043279647827,0.07115989178419113,0.009208952076733112,-0.15961267054080963,0.018592961132526398,0.43692344427108765
0.1,0.012121961,0.08013307,0,0.01929027959704399,0.19930100440979004,-2.65228271484375,0.1137588620185852,0.0716250017285347,0.012632174417376518,-0.16194042563438416,0.020831545814871788,0.4231840968132019
0.1,0.012121961,0.08013307,0,0.020053209736943245,0.20026810467243195,-2.6521759033203125,0.11218538880348206,0.0720846876502037,0.01595219038426876,-0.1766088753938675,0.01581653207540512,0.4090750217437744
0.1,0.012121961,0.08013307,0,0.020807109773159027,0.2012283056974411,-2.652008056640625,0.11056898534297943,0.07256870716810226,0.019126959145069122,-0.18258540332317352,0.020025046542286873,0.39053845405578613
0.1,0.012121961,0.08013307,0,0.0222869161516428,0.2031306028366089,-2.651611328125,0.10738597810268402,0.0733080506324768,0.025121575221419334,-0.18736757338047028,-0.00020641890296246856,0.36057454347610474
0.1,0.012121961,0.08013307,0,0.022975383326411247,0.2041330486536026,-2.6513519287109375,0.10569202899932861,0.07369296997785568,0.028021730482578278,-0.18855202198028564,0.004114933777600527,0.3550140857696533
0.1,0.012121961,0.08013307,0,0.02365395799279213,0.2051275670528412,-2.6510772705078125,0.10391377657651901,0.07410513609647751,0.030801931396126747,-0.19977141916751862,0.008745085448026657,0.3402307331562042
0.1,0.012121961,0.08013307,0,0.024322526529431343,0.2061145305633545,-2.6507720947265625,0.10217973589897156,0.07450584322214127,0.033433105796575546,-0.19490747153759003,0.008505097590386868,0.321807324886322
0.1,0.012121961,0.08013307,0,0.025628266856074333,0.20806528627872467,-2.6501312255859375,0.09848088771104813,0.07515092939138412,0.03825130686163902,-0.2151940017938614,0.0010306884068995714,0.28864479064941406
0.1,0.012002108,0.07948948,0,0.026214661076664925,0.20908741652965546,-2.6497802734375,0.09650353342294693,0.0755266547203064,0.04048369079828262,-0.22030052542686462,0.002828249940648675,0.2718549072742462
0.1,0.012002108,0.07948948,0,0.02679005078971386,0.2101024091243744,-2.6494140625,0.09453598409891129,0.075877346098423,0.04267951101064682,-0.2199789583683014,0.0006715544732287526,0.2674846649169922
0.1,0.012002108,0.07948948,0,0.027353951707482338,0.2111092358827591,-2.6490325927734375,0.09250611066818237,0.07620169222354889,0.04470883309841156,-0.22851459681987762,-0.001417949446476996,0.24686892330646515
0.1,0.012002108,0.07948948,0,0.02790590189397335,0.21210765838623047,-2.648651123046875,0.09044662117958069,0.07646559923887253,0.04660077393054962,-0.23294095695018768,-0.007801929023116827,0.2298871874809265
0.1,0.012002108,0.07948948,0,0.028845742344856262,0.2142016589641571,-2.647796630859375,0.08613602072000504,0.07712481170892715,0.05008564889431,-0.2385280728340149,-0.006969102658331394,0.19937752187252045
0.1,0.012002108,0.07948948,0,0.029298020526766777,0.21523550152778625,-2.6473541259765625,0.08398880064487457,0.07745223492383957,0.051625873893499374,-0.23810189962387085,-0.0025187234859913588,0.18565262854099274
0.1,0.012002108,0.07948948,0,0.029738478362560272,0.2162606120109558,-2.6468963623046875,0.08184764534235,0.07771982997655869,0.05303141847252846,-0.2381899207830429,-0.008782139979302883,0.16898614168167114
0.1,0.012002108,0.07948948,0,0.03044877015054226,0.218414306640625,-2.6459503173828125,0.07732508331537247,0.07839184999465942,0.0555187352001667,-0.24866101145744324,-0.007788557559251785,0.1448807269334793
0.1,0.012002108,0.07948948,0,0.0307869054377079,0.21947798132896423,-2.6454620361328125,0.07508166134357452,0.07864220440387726,0.05660013481974602,-0.24562950432300568,-0.014137797988951206,0.12825800478458405
0.1,0.012002108,0.07948948,0,0.031113335862755775,0.22053205966949463,-2.64495849609375,0.07286207377910614,0.07886523753404617,0.05761387199163437,-0.24360813200473785,-0.01628555729985237,0.1199943870306015
0.1,0.011864404,0.078750014,0,0.03136115148663521,0.22164368629455566,-2.64447021484375,0.07051002234220505,0.07910963147878647,0.058485615998506546,-0.253111332654953,-0.019752703607082367,0.1022205650806427
0.1,0.011864404,0.078750014,0,0.03182167932391167,0.22383596003055573,-2.6434478759765625,0.06580021977424622,0.07957451045513153,0.059971023350954056,-0.2515176236629486,-0.021813029423356056,0.07980921864509583
0.1,0.011864404,0.078750014,0,0.03203438222408295,0.22491662204265594,-2.6429290771484375,0.0634492039680481,0.07974443584680557,0.06057193502783775,-0.25622448325157166,-0.024975931271910667,0.06903661042451859
0.1,0.011864404,0.078750014,0,0.03216543048620224,0.22604496777057648,-2.6424102783203125,0.06101888790726662,0.07991569489240646,0.061084870249032974,-0.25910964608192444,-0.02972470596432686,0.05797110125422478
0.1,0.011864404,0.078750014,0,0.032285239547491074,0.22716206312179565,-2.6418914794921875,0.05858993157744408,0.08009234815835953,0.06154962256550789,-0.26014435291290283,-0.027626143768429756,0.05212006717920303
0.1,0.011864404,0.078750014,0,0.032491229474544525,0.22936396300792694,-2.6408538818359375,0.05374457314610481,0.08037005364894867,0.062260743230581284,-0.2623596787452698,-0.028943795710802078,0.03309500962495804
0.1,0.011864404,0.078750014,0,0.0325058177113533,0.23049955070018768,-2.6403350830078125,0.05135225132107735,0.08051654696464539,0.06253108382225037,-0.25111058354377747,-0.03259787708520889,0.028475185856223106
0.1,0.011864404,0.078750014,0,0.03251023590564728,0.2316235452890396,-2.63983154296875,0.048929110169410706,0.08064320683479309,0.06269612908363342,-0.2562454640865326,-0.033658839762210846,0.015460419468581676
0.1,0.011864404,0.078750014,0,0.03250398859381676,0.23273614048957825,-2.6392974853515625,0.0465250238776207,0.0807313546538353,0.062781423330307,-0.25511014461517334,-0.0370895192027092,0.005499924998730421
0.1,0.011864404,0.078750014,0,0.03248707950115204,0.2338370531797409,-2.6387786865234375,0.04413985833525658,0.08076712489128113,0.0627637654542923,-0.2539568543434143,-0.042288437485694885,-0.007225665729492903
0.2,0.020531973,0.1352416,0,0.03226378560066223,0.2360796332359314,-2.63775634765625,0.03919139504432678,0.08082371950149536,0.06263013929128647,-0.2595149874687195,-0.04635673761367798,-0.01167785283178091
0.2,0.020531973,0.1352416,0,0.03213726356625557,0.23718290030956268,-2.637237548828125,0.03680368512868881,0.08084645122289658,0.06250448524951935,-0.24895817041397095,-0.04382215812802315,-0.019946599379181862
0.2,0.020531973,0.1352416,0,0.032001134008169174,0.23827442526817322,-2.6367340087890625,0.034429881721735,0.08083987236022949,0.06228375807404518,-0.24853266775608063,-0.04617157205939293,-0.0317147895693779
0.2,0.020531973,0.1352416,0,0.03156261891126633,0.24049367010593414,-2.6357574462890625,0.0296393521130085,0.08079289644956589,0.06179605424404144,-0.24257272481918335,-0.05113079398870468,-0.03627081960439682
0.2,0.020531973,0.1352416,0,0.031330011785030365,0.24158504605293274,-2.6352691650390625,0.027194861322641373,0.0807742327451706,0.06145915761590004,-0.2538849711418152,-0.04746629297733307,-0.04507600888609886
0.2,0.020531973,0.1352416,0,0.0310878474265337,0.2426643818616867,-2.634765625,0.024731824174523354,0.08069377392530441,0.06110985577106476,-0.2575673758983612,-0.05391177162528038,-0.04654749855399132
0.2,0.020531973,0.1352416,0,0.030836088582873344,0.24373161792755127,-2.6342926025390625,0.022386664524674416,0.08057187497615814,0.06069707125425339,-0.24416011571884155,-0.05784318968653679,-0.054405998438596725
0.2,0.020531973,0.1352416,0,0.030161896720528603,0.2459196299314499,-2.63336181640625,0.017624452710151672,0.08047135174274445,0.05940242111682892,-0.23958712816238403,-0.048950985074043274,-0.09253294765949249
0.2,0.020531973,0.1352416,0,0.029813075438141823,0.24699558317661285,-2.6329193115234375,0.015386863611638546,0.08042556047439575,0.05868484824895859,-0.22710320353507996,-0.04916791990399361,-0.09131477773189545
0.2,0.020437622,0.13473587,0,0.029010558500885963,0.24915331602096558,-2.632049560546875,0.010927027091383934,0.08045810461044312,0.05719864368438721,-0.22322231531143188,-0.03812512010335922,-0.093694768846035
0.2,0.020437622,0.13473587,0,0.028095517307519913,0.25130558013916016,-2.6312103271484375,0.006409532390534878,0.08066219836473465,0.0557597279548645,-0.2243073433637619,-0.025192292407155037,-0.09344750642776489
0.2,0.020437622,0.13473587,0,0.027628466486930847,0.2523660361766815,-2.63079833984375,0.004256004001945257,0.08080141991376877,0.055053483694791794,-0.21484003961086273,-0.023813245818018913,-0.08898647129535675
0.2,0.020437622,0.13473587,0,0.027076661586761475,0.2534511089324951,-2.63043212890625,0.0021164820063859224,0.08104754984378815,0.05435961112380028,-0.20535993576049805,-0.012799256481230259,-0.08633872121572495
0.2,0.020437622,0.13473587,0,0.026520423591136932,0.254526823759079,-2.6300506591796875,2.083249273709953e-05,0.08137916028499603,0.05376359447836876,-0.2015058398246765,-0.0008551032515242696,-0.07412488758563995
0.2,0.020437622,0.13473587,0,0.025395551696419716,0.25665420293807983,-2.629302978515625,-0.004014140926301479,0.08233024924993515,0.052645910531282425,-0.19319570064544678,0.02412974089384079,-0.061924099922180176
0.2,0.020437622,0.13473587,0,0.02475070208311081,0.25774306058883667,-2.62896728515625,-0.00597814004868269,0.08293328434228897,0.05211842805147171,-0.18165481090545654,0.0330662727355957,-0.06423098593950272
0.2,0.020437622,0.13473587,0,0.024103568866848946,0.25882580876350403,-2.628631591796875,-0.007897058501839638,0.08365872502326965,0.051648493856191635,-0.17769606411457062,0.049598440527915955,-0.057093795388936996
0.2,0.020437622,0.13473587,0,0.023454219102859497,0.2599029242992401,-2.6282958984375,-0.009777011349797249,0.08436074107885361,0.0512465201318264,-0.1744573414325714,0.0478702150285244,-0.04865275323390961
0.2,0.020463029,0.13487205,0,0.022802799940109253,0.2609752118587494,-2.627960205078125,-0.011584626510739326,0.08519954979419708,0.050791844725608826,-0.16700349748134613,0.06614084541797638,-0.05529308319091797
0.2,0.020463029,0.13487205,0,0.021346351131796837,0.2631750702857971,-2.6273345947265625,-0.015211399644613266,0.08708295971155167,0.049884192645549774,-0.16065528988838196,0.08271016925573349,-0.055254898965358734
0.2,0.020463029,0.13487205,0,0.020617477595806122,0.26426979899406433,-2.62701416015625,-0.016870073974132538,0.08804889023303986,0.049442972987890244,-0.14562155306339264,0.0823548287153244,-0.05309236794710159
0.2,0.020463029,0.13487205,0,0.01988859288394451,0.265361487865448,-2.626708984375,-0.01852453500032425,0.08906017243862152,0.04910698160529137,-0.14671418070793152,0.08916477113962173,-0.040045469999313354
0.2,0.020463029,0.13487205,0,0.01828031614422798,0.2676260471343994,-2.6261444091796875,-0.021774370223283768,0.09135618805885315,0.04824713245034218,-0.12894970178604126,0.10491633415222168,-0.04812934994697571
0.2,0.020463029,0.13487205,0,0.017479678615927696,0.2687555253505707,-2.6258697509765625,-0.02326946333050728,0.09250406175851822,0.04789067059755325,-0.12462477385997772,0.10550464689731598,-0.04131346568465233
0.2,0.020463029,0.13487205,0,0.01668073609471321,0.2698831260204315,-2.6255950927734375,-0.02475091628730297,0.09362819790840149,0.047538742423057556,-0.12455163896083832,0.10373828560113907,-0.040846873074769974
0.2,0.020463029,0.13487205,0,0.015809467062354088,0.27105608582496643,-2.6253509521484375,-0.02617994323372841,0.09484443068504333,0.04716579616069794,-0.1119459718465805,0.11213025450706482,-0.04237843304872513
0.2,0.020463029,0.13487205,0,0.014078075997531414,0.2733972668647766,-2.624847412109375,-0.028855936601758003,0.0973157212138176,0.04643544182181358,-0.10287892073392868,0.11461228132247925,-0.042842697352170944
0.2,0.020463029,0.13487205,0,0.013217994011938572,0.2745656371116638,-2.6245880126953125,-0.030132491141557693,0.09851501137018204,0.04604145139455795,-0.09798748046159744,0.11375334858894348,-0.04538055136799812
0.2,0.0206142,0.13568234,0,0.012287000194191933,0.27578088641166687,-2.624359130859375,-0.03144169598817825,0.09971680492162704,0.045701149851083755,-0.09600403159856796,0.11076948046684265,-0.038502734154462814
0.2,0.0206142,0.13568234,0,0.011360994540154934,0.2769939601421356,-2.624114990234375,-0.032697055488824844,0.1009301245212555,0.045299921184778214,-0.09104405343532562,0.11348430067300797,-0.046241093426942825
0.2,0.0206142,0.13568234,0,0.009526384994387627,0.27941635251045227,-2.623626708984375,-0.034980956465005875,0.10333076864480972,0.04454513266682625,-0.07852016389369965,0.11149995774030685,-0.03991881012916565
0.2,0.0206142,0.13568234,0,0.008617441169917583,0.2806251347064972,-2.6233978271484375,-0.03602146729826927,0.10451637208461761,0.044153403490781784,-0.06942375004291534,0.11342335492372513,-0.04539964348077774
0.2,0.0206142,0.13568234,0,0.007634530775249004,0.2818724811077118,-2.6231689453125,-0.03711919113993645,0.10574328899383545,0.04377412050962448,-0.07004056125879288,0.11637482792139053,-0.043371688574552536
0.2,0.0206142,0.13568234,0,0.006658622063696384,0.28311797976493835,-2.6229400634765625,-0.038140494376420975,0.10692723840475082,0.043397706001996994,-0.062252406030893326,0.11219865083694458,-0.04320172220468521
0.2,0.0206142,0.13568234,0,0.004727829713374376,0.28560394048690796,-2.6224822998046875,-0.040094971656799316,0.10928235203027725,0.04279568791389465,-0.05519534647464752,0.11261355876922607,-0.032360196113586426
0.2,0.0206142,0.13568234,0,0.003693709848448634,0.2869050204753876,-2.6222686767578125,-0.04106031730771065,0.1104692742228508,0.04249061644077301,-0.0523986741900444,0.11019827425479889,-0.03426475077867508
0.2,0.0206142,0.13568234,0,0.002668076893314719,0.2882043421268463,-2.6220703125,-0.04194625839591026,0.11160936206579208,0.042209502309560776,-0.044299159198999405,0.10529328882694244,-0.031387895345687866
0.2,0.0206142,0.13568234,0,0.0016511346912011504,0.289500892162323,-2.6218414306640625,-0.04276737570762634,0.11270451545715332,0.04203689470887184,-0.03795263543725014,0.10084899514913559,-0.017938202247023582
0.2,0.020760622,0.13646716,0,-0.00043730426114052534,0.29215186834335327,-2.621429443359375,-0.044464707374572754,0.11486978083848953,0.04153412580490112,-0.043056100606918335,0.09697772562503815,-0.02846587263047695
0.2,0.020760622,0.13646716,0,-0.0015080507146194577,0.29350534081459045,-2.6212310791015625,-0.04522557184100151,0.11594407260417938,0.041233472526073456,-0.027148036286234856,0.09534873068332672,-0.033975109457969666
0.2,0.020760622,0.13646716,0,-0.002568666124716401,0.29485493898391724,-2.6210174560546875,-0.04597432538866997,0.11693288385868073,0.04100168123841286,-0.027439812198281288,0.08586049824953079,-0.025476792827248573
0.2,0.020760622,0.13646716,0,-0.0036192929837852716,0.2962004542350769,-2.6208038330078125,-0.046665504574775696,0.1178816482424736,0.0408138670027256,-0.02200303040444851,0.08201690018177032,-0.020085832104086876
0.2,0.020760622,0.13646716,0,-0.004738030023872852,0.29760420322418213,-2.62060546875,-0.04736750200390816,0.11885934323072433,0.04061422497034073,-0.016545288264751434,0.08096805214881897,-0.021299345418810844
0.2,0.020760622,0.13646716,0,-0.005845273844897747,0.29900306463241577,-2.6204071044921875,-0.047999024391174316,0.11983740329742432,0.04038659855723381,-0.009633544832468033,0.0822603702545166,-0.024908220395445824
0.2,0.020760622,0.13646716,0,-0.00802629068493843,0.3017873466014862,-2.6199951171875,-0.04913133755326271,0.1215914860367775,0.040027447044849396,0.0007623579585924745,0.06996379792690277,-0.016984527930617332
0.2,0.020760622,0.13646716,0,-0.009166338481009007,0.3032401502132416,-2.6198272705078125,-0.04969937354326248,0.12248994410037994,0.03982926905155182,0.0003259074001107365,0.06885357201099396,-0.02084299735724926
0.2,0.020760622,0.13646716,0,-0.010293932631611824,0.304686576128006,-2.6196441650390625,-0.050234582275152206,0.12330655753612518,0.03964890167117119,0.0025222464464604855,0.05990852043032646,-0.018735414370894432
0.2,0.020760622,0.13646716,0,-0.012511828914284706,0.3075598180294037,-2.6192626953125,-0.05114523693919182,0.12479528784751892,0.03938788175582886,0.013040820136666298,0.051182568073272705,-0.013051087968051434
0.2,0.02088029,0.13710855,0,-0.013647685758769512,0.309036523103714,-2.61907958984375,-0.051529910415410995,0.1255529522895813,0.039260897785425186,0.021260425448417664,0.051555391401052475,-0.01235166471451521
0.2,0.02088029,0.13710855,0,-0.014770330861210823,0.3105058968067169,-2.6189117431640625,-0.05193370580673218,0.12622854113578796,0.03910203278064728,0.017008444294333458,0.04256236180663109,-0.016443895176053047
0.2,0.02088029,0.13710855,0,-0.015879660844802856,0.3119678199291229,-2.6187286376953125,-0.05225159972906113,0.12691493332386017,0.038953155279159546,0.02593267150223255,0.045138053596019745,-0.015299300663173199
0.2,0.02088029,0.13710855,0,-0.016976533457636833,0.3134237825870514,-2.6185302734375,-0.05259399861097336,0.1275673359632492,0.0388278104364872,0.021121464669704437,0.04172857105731964,-0.012459232471883297
0.2,0.02088029,0.13710855,0,-0.01920824870467186,0.3164353370666504,-2.6181793212890625,-0.05305447056889534,0.12871743738651276,0.03859341889619827,0.04313068836927414,0.025530995801091194,-0.012043862603604794
0.2,0.02088029,0.13710855,0,-0.020302627235651016,0.3179280161857605,-2.6179962158203125,-0.05318891629576683,0.12925201654434204,0.038482677191495895,0.04635224863886833,0.02488623559474945,-0.011028255335986614
0.2,0.02088029,0.13710855,0,-0.02138272486627102,0.31941238045692444,-2.6177978515625,-0.05331184342503548,0.12978126108646393,0.03849426284432411,0.046087075024843216,0.02543485164642334,0.004176515620201826
0.2,0.02088029,0.13710855,0,-0.023576980456709862,0.32248881459236145,-2.6174468994140625,-0.05337465927004814,0.13072240352630615,0.03838541358709335,0.06584583222866058,0.013753236271440983,-0.004411208909004927
0.2,0.02088029,0.13710855,0,-0.024650923907756805,0.32401242852211,-2.6172637939453125,-0.05332641303539276,0.13116218149662018,0.03831867873668671,0.06697008013725281,0.011506105773150921,-0.0054188999347388744
0.2,0.02088029,0.13710855,0,-0.02570960856974125,0.3255264163017273,-2.6170806884765625,-0.053283318877220154,0.13156351447105408,0.03828451409935951,0.06467591971158981,0.007952279411256313,-0.001495238277129829
0.2,0.020939399,0.13742535,0,-0.027821529656648636,0.3285928964614868,-2.6167144775390625,-0.05315970629453659,0.13219276070594788,0.038158755749464035,0.07142248749732971,-0.006221340037882328,-0.0012316739885136485
0.2,0.020939399,0.13742535,0,-0.02887374721467495,0.33014315366744995,-2.6165313720703125,-0.053078167140483856,0.1325373500585556,0.03818291053175926,0.06870213150978088,-0.002307809889316559,0.005998182576149702
0.2,0.020939399,0.13742535,0,-0.02991006337106228,0.33168259263038635,-2.6163482666015625,-0.05282517895102501,0.13283337652683258,0.03821605071425438,0.08854147046804428,-0.007077716290950775,0.0070314849726855755
0.2,0.020939399,0.13742535,0,-0.030930113047361374,0.33321142196655273,-2.6161651611328125,-0.05260442569851875,0.1331215500831604,0.03815088048577309,0.08296171575784683,-0.006794963497668505,-0.005344859790056944
0.2,0.020939399,0.13742535,0,-0.03299181908369064,0.33636730909347534,-2.61578369140625,-0.05201510712504387,0.1336061805486679,0.03814353048801422,0.09582246094942093,-0.020500848069787025,0.001145060989074409
0.2,0.020939399,0.13742535,0,-0.03399745374917984,0.33792737126350403,-2.6156158447265625,-0.05169995129108429,0.13380125164985657,0.038182783871889114,0.09376205503940582,-0.021047256886959076,0.007760710548609495
0.2,0.020939399,0.13742535,0,-0.03498648479580879,0.339477002620697,-2.6154327392578125,-0.05132490396499634,0.1339445263147354,0.03810354322195053,0.09963133931159973,-0.02670648694038391,-0.00713765574619174
0.2,0.020939399,0.13742535,0,-0.036007195711135864,0.34107324481010437,-2.6152496337890625,-0.050934966653585434,0.13408611714839935,0.038014691323041916,0.10528115928173065,-0.031431253999471664,-0.008651054464280605
0.2,0.020939399,0.13742535,0,-0.03799465298652649,0.3442267179489136,-2.6148681640625,-0.04998128116130829,0.13421790301799774,0.03797406703233719,0.11199483275413513,-0.042356837540864944,0.002404674654826522
0.2,0.020939399,0.13742535,0,-0.03896162658929825,0.3457837700843811,-2.6146697998046875,-0.049482885748147964,0.1342601180076599,0.03792642802000046,0.11431419104337692,-0.03978258743882179,-0.003715511178597808
0.30000000000000004,0.02975314,0.19456352,0,-0.03995070606470108,0.34738069772720337,-2.614471435546875,-0.048991844058036804,0.1343143731355667,0.03789123147726059,0.11607251316308975,-0.04204738140106201,-0.002822372829541564
0.30000000000000004,0.02975314,0.19456352,0,-0.04092128574848175,0.34896400570869446,-2.6142578125,-0.0484338141977787,0.13434289395809174,0.0378497950732708,0.12294173240661621,-0.04387849196791649,-0.0038105060812085867
0.30000000000000004,0.02975314,0.19456352,0,-0.0428072065114975,0.3520899713039398,-2.6138153076171875,-0.047264132648706436,0.13430337607860565,0.0377839058637619,0.12511517107486725,-0.04776192829012871,0.0010365619091317058
0.30000000000000004,0.02975314,0.19456352,0,-0.04375484213232994,0.353662371635437,-2.61358642578125,-0.046645548194646835,0.13428932428359985,0.037739936262369156,0.12935324013233185,-0.04817835986614227,-0.005037523340433836
0.30000000000000004,0.02975314,0.19456352,0,-0.04468357190489769,0.35522088408470154,-2.61334228515625,-0.04600728675723076,0.1341983824968338,0.03747681900858879,0.1303749680519104,-0.05646844953298569,-0.032446809113025665
0.30000000000000004,0.02975314,0.19456352,0,-0.04559313878417015,0.3567655682563782,-2.6131134033203125,-0.04525797814130783,0.13408799469470978,0.03706088662147522,0.14285524189472198,-0.05761377513408661,-0.051563601940870285
0.30000000000000004,0.02975314,0.19456352,0,-0.0464835986495018,0.35829684138298035,-2.612884521484375,-0.04453406482934952,0.13403280079364777,0.03668596222996712,0.13831719756126404,-0.049464963376522064,-0.04645250365138054
0.30000000000000004,0.02975314,0.19456352,0,-0.048251960426568985,0.36136892437934875,-2.6124114990234375,-0.04300148785114288,0.13396425545215607,0.03614044934511185,0.14872519671916962,-0.04524463042616844,-0.030941328033804893
0.30000000000000004,0.02975314,0.19456352,0,-0.049106892198324203,0.36288589239120483,-2.6121826171875,-0.04216212406754494,0.13397321105003357,0.03587694093585014,0.15126942098140717,-0.03988753631711006,-0.032695937901735306
0.30000000000000004,0.029731048,0.19444546,0,-0.04994223266839981,0.36439070105552673,-2.6119384765625,-0.041274748742580414,0.13398177921772003,0.03558877855539322,0.1559775173664093,-0.038757145404815674,-0.03578699752688408
0.30000000000000004,0.029731048,0.19444546,0,-0.05078691989183426,0.3659164011478424,-2.6117095947265625,-0.04046902805566788,0.13408687710762024,0.0353071391582489,0.1479683220386505,-0.02879433147609234,-0.034535765647888184
0.30000000000000004,0.029731048,0.19444546,0,-0.0524166114628315,0.3689385652542114,-2.6112518310546875,-0.038660839200019836,0.13452567160129547,0.03493064269423485,0.15904314815998077,-0.009798333048820496,-0.016915610060095787
0.30000000000000004,0.029731048,0.19444546,0,-0.05320195108652115,0.37043482065200806,-2.61102294921875,-0.03773507848381996,0.13482847809791565,0.03477901220321655,0.15888263285160065,-0.0011070186737924814,-0.018346121534705162
0.30000000000000004,0.029731048,0.19444546,0,-0.05400077626109123,0.37195634841918945,-2.6108245849609375,-0.036789022386074066,0.13519848883152008,0.03464427590370178,0.16376560926437378,0.0051081073470413685,-0.014984513632953167
0.30000000000000004,0.029731048,0.19444546,0,-0.055537689477205276,0.37497302889823914,-2.61041259765625,-0.03478609398007393,0.13608725368976593,0.03442000970244408,0.1695026457309723,0.0215451680123806,-0.011967028491199017
0.30000000000000004,0.029731048,0.19444546,0,-0.05627582594752312,0.3764696717262268,-2.6102142333984375,-0.03375794738531113,0.13662837445735931,0.03428265079855919,0.17029456794261932,0.02996455319225788,-0.01547206100076437
0.30000000000000004,0.029731048,0.19444546,0,-0.056994035840034485,0.3779592216014862,-2.6100006103515625,-0.03272056579589844,0.13719354569911957,0.03420448675751686,0.17026737332344055,0.034067001193761826,-0.008122994564473629
0.30000000000000004,0.029731048,0.19444546,0,-0.05772919952869415,0.3794695734977722,-2.60980224609375,-0.031676337122917175,0.13792303204536438,0.03412008285522461,0.17397896945476532,0.05337812379002571,-0.007913912646472454
0.30000000000000004,0.029731048,0.19444546,0,-0.05844320356845856,0.3809765577316284,-2.6096038818359375,-0.03059569001197815,0.13871081173419952,0.03403431922197342,0.17701281607151031,0.06114567443728447,-0.008161644451320171
0.30000000000000004,0.029731048,0.19444546,0,-0.05981050804257393,0.3839758336544037,-2.6092071533203125,-0.0284840427339077,0.14033706486225128,0.03386383131146431,0.17309923470020294,0.06845668703317642,-0.009973998181521893
0.30000000000000004,0.0297444,0.19451681,0,-0.06050804629921913,0.38551029562950134,-2.6090240478515625,-0.027391064912080765,0.1412738412618637,0.03367320075631142,0.17946834862232208,0.07904184609651566,-0.020585021004080772
0.30000000000000004,0.0297444,0.19451681,0,-0.061184804886579514,0.3870408236980438,-2.6088409423828125,-0.026300163939595222,0.14223738014698029,0.03357543796300888,0.17799758911132812,0.08353346586227417,-0.009071080945432186
0.30000000000000004,0.0297444,0.19451681,0,-0.06184093654155731,0.3885677754878998,-2.608642578125,-0.025203514844179153,0.14322607219219208,0.033488716930150986,0.17753882706165314,0.0878089889883995,-0.007782596629112959
0.30000000000000004,0.0297444,0.19451681,0,-0.06247665733098984,0.39009159803390503,-2.60845947265625,-0.024103926494717598,0.1442214548587799,0.0333632230758667,0.17676018178462982,0.08976699411869049,-0.0127181401476264
0.30000000000000004,0.0297444,0.19451681,0,-0.0637807846069336,0.39321887493133545,-2.60809326171875,-0.02193319797515869,0.14631065726280212,0.033030372112989426,0.17618387937545776,0.09621594846248627,-0.01880386658012867
0.30000000000000004,0.0297444,0.19451681,0,-0.0644015222787857,0.3947792053222656,-2.6079254150390625,-0.02079659514129162,0.14739100635051727,0.03290596976876259,0.18294064700603485,0.09924796223640442,-0.012131872586905956
0.30000000000000004,0.0297444,0.19451681,0,-0.0650017186999321,0.39633709192276,-2.6077423095703125,-0.01969783939421177,0.14848804473876953,0.0327967070043087,0.17704397439956665,0.10249051451683044,-0.01033907663077116
0.30000000000000004,0.0297444,0.19451681,0,-0.06622500717639923,0.3995613753795624,-2.6074066162109375,-0.01741766184568405,0.1506481170654297,0.03249536454677582,0.1854408234357834,0.09900249540805817,-0.009120441041886806
0.30000000000000004,0.0297444,0.19451681,0,-0.06680508702993393,0.4011686444282532,-2.60723876953125,-0.01627642661333084,0.1516639143228531,0.03234365954995155,0.1835222840309143,0.09008525311946869,-0.01533189695328474
0.30000000000000004,0.029832257,0.19498633,0,-0.06736445426940918,0.4027726352214813,-2.6070709228515625,-0.015111245214939117,0.15272267162799835,0.032073549926280975,0.18534162640571594,0.0966373011469841,-0.030238179489970207
0.30000000000000004,0.029832257,0.19498633,0,-0.06851095706224442,0.4061031639575958,-2.60675048828125,-0.012899413704872131,0.1549602448940277,0.03168287128210068,0.1792091280221939,0.0979285016655922,-0.020099801942706108
0.30000000000000004,0.029832257,0.19498633,0,-0.06905348598957062,0.40776532888412476,-2.606597900390625,-0.011734218336641788,0.1560002714395523,0.03151024878025055,0.18683473765850067,0.09072905033826828,-0.018017830327153206
0.30000000000000004,0.029832257,0.19498633,0,-0.069575235247612,0.4094237685203552,-2.6064300537109375,-0.010572308674454689,0.1570224165916443,0.031354185193777084,0.18523535132408142,0.08972477167844772,-0.01605180837213993
0.30000000000000004,0.029832257,0.19498633,0,-0.07012294977903366,0.41113072633743286,-2.606292724609375,-0.009477565996348858,0.15807421505451202,0.031186405569314957,0.18090349435806274,0.08933629840612411,-0.015987547114491463
0.30000000000000004,0.029832257,0.19498633,0,-0.07115592062473297,0.414531946182251,-2.6060028076171875,-0.007207277696579695,0.16008195281028748,0.030805686488747597,0.18684421479701996,0.08362139016389847,-0.01774122752249241
0.30000000000000004,0.029832257,0.19498633,0,-0.07164150476455688,0.41622617840766907,-2.605865478515625,-0.006109476089477539,0.16101349890232086,0.030587056651711464,0.1775875687599182,0.07807356864213943,-0.022768041118979454
0.30000000000000004,0.029832257,0.19498633,0,-0.07216041535139084,0.4179646074771881,-2.6057281494140625,-0.004996841307729483,0.16192911565303802,0.030383437871932983,0.1841944009065628,0.0721389576792717,-0.020283738151192665
0.30000000000000004,0.029832257,0.19498633,0,-0.07265850156545639,0.41969791054725647,-2.6055755615234375,-0.0039078909903764725,0.162851020693779,0.03022628091275692,0.17993739247322083,0.07420232892036438,-0.015226657502353191
0.30000000000000004,0.029832257,0.19498633,0,-0.07313577085733414,0.4214261472225189,-2.60540771484375,-0.002793499967083335,0.1637142300605774,0.030007043853402138,0.18185627460479736,0.06810194998979568,-0.023116355761885643
0.30000000000000004,0.029926091,0.19548777,0,-0.07359350472688675,0.42315125465393066,-2.605255126953125,-0.0016534094465896487,0.16452302038669586,0.029822301119565964,0.18391002714633942,0.06195438280701637,-0.01893145777285099
0.30000000000000004,0.029926091,0.19548777,0,-0.07453703135251999,0.4266737103462219,-2.604949951171875,0.0005868354346603155,0.16604501008987427,0.02953222393989563,0.18578821420669556,0.048440705984830856,-0.01192511897534132
0.30000000000000004,0.029926091,0.19548777,0,-0.074977345764637,0.4284251928329468,-2.60479736328125,0.0017130902269855142,0.16670793294906616,0.0294104665517807,0.1834246963262558,0.0427730418741703,-0.01075724046677351
0.30000000000000004,0.029926091,0.19548777,0,-0.07579638063907623,0.431908518075943,-2.6044921875,0.00399374682456255,0.16796734929084778,0.029057873412966728,0.18424835801124573,0.038735486567020416,-0.021744517609477043
0.30000000000000004,0.029926091,0.19548777,0,-0.0762254148721695,0.43368637561798096,-2.6043548583984375,0.005106755066663027,0.1686287820339203,0.028825735673308372,0.18372103571891785,0.04149980843067169,-0.023785511031746864
0.30000000000000004,0.029926091,0.19548777,0,-0.07663404196500778,0.4354572296142578,-2.6042327880859375,0.00613310607150197,0.16921144723892212,0.0286845862865448,0.1716102808713913,0.032860223203897476,-0.01256586890667677
0.30000000000000004,0.029926091,0.19548777,0,-0.0770225003361702,0.4372207224369049,-2.604095458984375,0.007232896517962217,0.16975262761116028,0.02852744609117508,0.17954526841640472,0.028841592371463776,-0.014714430086314678
0.30000000000000004,0.029926091,0.19548777,0,-0.0777738094329834,0.4407513439655304,-2.6038360595703125,0.009329624474048615,0.17069590091705322,0.028186285868287086,0.17281247675418854,0.0169974397867918,-0.015657858923077583
0.30000000000000004,0.029926091,0.19548777,0,-0.07813570648431778,0.44251546263694763,-2.6037139892578125,0.010392890311777592,0.17108283936977386,0.027980808168649673,0.17481505870819092,0.010318118147552013,-0.021066049113869667
0.30000000000000004,0.029926091,0.19548777,0,-0.07847767323255539,0.44427141547203064,-2.60357666015625,0.011465947143733501,0.17147457599639893,0.027859274297952652,0.174833282828331,0.012025576084852219,-0.01070974301546812
0.4,0.038823955,0.25288102,0,-0.07879986613988876,0.44601935148239136,-2.60345458984375,0.012541212141513824,0.17182381451129913,0.027678148820996284,0.17393556237220764,0.0077887848019599915,-0.018293501809239388
0.4,0.038823955,0.25288102,0,-0.07947059720754623,0.4495416283607483,-2.603179931640625,0.014585787430405617,0.17234142124652863,0.02738112397491932,0.16951394081115723,-0.005580042488873005,-0.01691095344722271
0.4,0.038823955,0.25288102,0,-0.07977637648582458,0.4512893259525299,-2.6030426025390625,0.015659460797905922,0.1725861132144928,0.027168024331331253,0.17502379417419434,-0.004840608686208725,-0.022856051102280617
0.4,0.038823955,0.25288102,0,-0.08006314188241959,0.4530305564403534,-2.6029205322265625,0.0167516078799963,0.1728138029575348,0.02698248252272606,0.17614150047302246,-0.006451909430325031,-0.019525175914168358
0.4,0.038823955,0.25288102,0,-0.08038598299026489,0.45480260252952576,-2.6027679443359375,0.017793551087379456,0.1729859709739685,0.02682884968817234,0.17499616742134094,-0.016979895532131195,-0.01625809632241726
0.4,0.038823955,0.25288102,0,-0.08068877458572388,0.4565648138523102,-2.602630615234375,0.01878674142062664,0.17310094833374023,0.026634350419044495,0.1676224023103714,-0.023015769198536873,-0.02145441062748432
0.4,0.038823955,0.25288102,0,-0.08123676478862762,0.46005991101264954,-2.6023406982421875,0.020710323005914688,0.17335112392902374,0.026054060086607933,0.16139498353004456,-0.021030232310295105,-0.04882365092635155
0.4,0.038823955,0.25288102,0,-0.08154433965682983,0.4618304371833801,-2.6021881103515625,0.021648459136486053,0.1735379546880722,0.025432640686631203,0.1639978140592575,-0.015252146869897842,-0.0758306086063385
0.4,0.038823955,0.25288102,0,-0.08183199167251587,0.4635915160179138,-2.60205078125,0.022628528997302055,0.17371590435504913,0.02483569085597992,0.16790995001792908,-0.015247146598994732,-0.0728280246257782
0.4,0.038823955,0.25288102,0,-0.08234906941652298,0.4670860171318054,-2.6017608642578125,0.02450440265238285,0.17405113577842712,0.023911509662866592,0.16056832671165466,-0.014609456062316895,-0.05791755020618439
0.4,0.038851906,0.2530298,0,-0.08264253288507462,0.4688445031642914,-2.6016082763671875,0.025400647893548012,0.17427167296409607,0.023383120074868202,0.16022327542304993,-0.009560591541230679,-0.06550689786672592
0.4,0.038851906,0.2530298,0,-0.08291598409414291,0.4705944359302521,-2.6014556884765625,0.026356443762779236,0.17453710734844208,0.022924959659576416,0.1662977933883667,-0.002873950405046344,-0.05674687772989273
0.4,0.038851906,0.2530298,0,-0.08316981792449951,0.4723362326622009,-2.601287841796875,0.027230773121118546,0.17481744289398193,0.022536274045705795,0.15478210151195526,3.65216656064149e-05,-0.04819826781749725
0.4,0.038851906,0.2530298,0,-0.08340438455343246,0.4740705192089081,-2.60113525390625,0.028181524947285652,0.17519380152225494,0.022144444286823273,0.1630392074584961,0.013055386021733284,-0.04860525578260422
0.4,0.038851906,0.2530298,0,-0.08393304795026779,0.477541446685791,-2.6008148193359375,0.03000023029744625,0.17624995112419128,0.021546833217144012,0.16228190064430237,0.03633686527609825,-0.03489432483911514
0.4,0.038851906,0.2530298,0,-0.08416751772165298,0.4792689085006714,-2.60064697265625,0.0309305302798748,0.1768270879983902,0.02138802409172058,0.1625642329454422,0.04016243666410446,-0.020718200132250786
0.4,0.038851906,0.2530298,0,-0.0843823030591011,0.4809917211532593,-2.6004791259765625,0.03184471279382706,0.17743490636348724,0.021220514550805092,0.15923255681991577,0.04493933171033859,-0.021783167496323586
0.4,0.038851906,0.2530298,0,-0.08486679941415787,0.48447200655937195,-2.600128173828125,0.03361675143241882,0.17889529466629028,0.021009808406233788,0.1633714884519577,0.06607554107904434,-0.011990777216851711
0.4,0.038851906,0.2530298,0,-0.08507893234491348,0.4862082302570343,-2.599945068359375,0.03452756628394127,0.17967110872268677,0.020940488204360008,0.16052255034446716,0.06626395881175995,-0.010811722837388515
0.4,0.038917243,0.25337756,0,-0.08527172356843948,0.4879418611526489,-2.599761962890625,0.03536989539861679,0.1805395781993866,0.020924799144268036,0.15063747763633728,0.07875823974609375,-0.00404799310490489
0.4,0.038917243,0.25337756,0,-0.08544522523880005,0.48967379331588745,-2.599578857421875,0.0363372303545475,0.18149033188819885,0.020898133516311646,0.1649739146232605,0.08993138372898102,-0.00536208925768733
0.4,0.038917243,0.25337756,0,-0.08586025983095169,0.4931964874267578,-2.59918212890625,0.03803042694926262,0.18355055153369904,0.020817860960960388,0.15410980582237244,0.09752458333969116,-0.0027823259588330984
0.4,0.038917243,0.25337756,0,-0.08603867143392563,0.4949563443660736,-2.5989837646484375,0.03884384036064148,0.18458043038845062,0.02077535167336464,0.148357555270195,0.09948554635047913,-0.008776783011853695
0.4,0.038917243,0.25337756,0,-0.0861978754401207,0.4967159628868103,-2.598785400390625,0.039719678461551666,0.18570469319820404,0.020724337548017502,0.15483883023262024,0.11219680309295654,-0.00974163319915533
0.4,0.038917243,0.25337756,0,-0.08638833463191986,0.4985038638114929,-2.59857177734375,0.04058096557855606,0.1868249624967575,0.020630184561014175,0.15713202953338623,0.10977502912282944,-0.016489995643496513
0.4,0.038917243,0.25337756,0,-0.08670993894338608,0.5020841956138611,-2.598175048828125,0.042224809527397156,0.1891491860151291,0.020463470369577408,0.14698445796966553,0.11851732432842255,-0.012573319487273693
0.4,0.038917243,0.25337756,0,-0.0868426114320755,0.503875195980072,-2.5979766845703125,0.04299698397517204,0.19037267565727234,0.02036324329674244,0.14176085591316223,0.12511689960956573,-0.016856936737895012
0.4,0.038917243,0.25337756,0,-0.08702076971530914,0.5056982636451721,-2.5977630615234375,0.043756235390901566,0.1915809065103531,0.020290911197662354,0.14507582783699036,0.12125668674707413,-0.014222226105630398
0.4,0.038917243,0.25337756,0,-0.08717984706163406,0.5075219869613647,-2.597564697265625,0.04446110874414444,0.19282086193561554,0.020148377865552902,0.13686451315879822,0.1262175291776657,-0.022848600521683693
0.4,0.039042644,0.25404498,0,-0.08744154870510101,0.5111713409423828,-2.5971527099609375,0.04595136269927025,0.1951937973499298,0.019855985417962074,0.13643144071102142,0.12169131636619568,-0.018584074452519417
0.4,0.039042644,0.25404498,0,-0.08760300278663635,0.5130441188812256,-2.596954345703125,0.04666024073958397,0.19643336534500122,0.01975795440375805,0.13840703666210175,0.12444806098937988,-0.018153337761759758
0.4,0.039042644,0.25404498,0,-0.08774562925100327,0.514919638633728,-2.59674072265625,0.04741009324789047,0.19771096110343933,0.0196869857609272,0.14210358262062073,0.12978704273700714,-0.014601740054786205
0.4,0.039042644,0.25404498,0,-0.08786936849355698,0.5167956352233887,-2.596527099609375,0.048076558858156204,0.1988804042339325,0.01955498196184635,0.1303061693906784,0.11725976318120956,-0.02206628955900669
0.4,0.039042644,0.25404498,0,-0.08811565488576889,0.5205868482589722,-2.5961151123046875,0.049473926424980164,0.20126502215862274,0.019341295585036278,0.13500089943408966,0.11666592955589294,-0.022234858945012093
0.4,0.039042644,0.25404498,0,-0.08823788166046143,0.522501528263092,-2.59588623046875,0.050066351890563965,0.20243379473686218,0.019227225333452225,0.1217661127448082,0.11628970503807068,-0.020961275324225426
0.4,0.039042644,0.25404498,0,-0.0883418470621109,0.5244160890579224,-2.595672607421875,0.05072294920682907,0.20355814695358276,0.019139716401696205,0.1284247487783432,0.11171126365661621,-0.01744832657277584
0.4,0.039042644,0.25404498,0,-0.08842770755290985,0.526330292224884,-2.5954742431640625,0.051327966153621674,0.2046460062265396,0.018976474180817604,0.12064862996339798,0.10808974504470825,-0.02655666135251522
0.4,0.039042644,0.25404498,0,-0.08867180347442627,0.5302475690841675,-2.59503173828125,0.05265314131975174,0.20677286386489868,0.018795499578118324,0.13147234916687012,0.09986268728971481,-0.013112555257976055
0.4,0.039042644,0.25404498,0,-0.08876639604568481,0.5322065353393555,-2.5948028564453125,0.05326411873102188,0.20784977078437805,0.018669549375772476,0.12296638637781143,0.10446370393037796,-0.02303859032690525
0.5,0.048046608,0.31174654,0,-0.08884298801422119,0.5341643691062927,-2.5945892333984375,0.05382731184363365,0.20883288979530334,0.018503887578845024,0.11565286666154861,0.09369063377380371,-0.02779299207031727
0.5,0.048046608,0.31174654,0,-0.08897607028484344,0.5361711382865906,-2.5943450927734375,0.05435359850525856,0.20990236103534698,0.01836530864238739,0.1166822612285614,0.09967748075723648,-0.026210209354758263
0.5,0.048046608,0.31174654,0,-0.08918581157922745,0.5401795506477356,-2.5938720703125,0.05548448860645294,0.21186353266239166,0.01808091811835766,0.1185000091791153,0.08755213022232056,-0.029357613995671272
0.5,0.048046608,0.31174654,0,-0.08926311135292053,0.5421806573867798,-2.593658447265625,0.05601783096790314,0.2127903699874878,0.01791277900338173,0.11330851167440414,0.08488566428422928,-0.028796957805752754
0.5,0.048046608,0.31174654,0,-0.08938554674386978,0.5442319512367249,-2.5934295654296875,0.05653774365782738,0.21372799575328827,0.017759107053279877,0.11629429459571838,0.08166301250457764,-0.028543172404170036
0.5,0.048046608,0.31174654,0,-0.08948909491300583,0.5462799668312073,-2.59320068359375,0.05706056207418442,0.21453268826007843,0.017587680369615555,0.11518780887126923,0.06611140817403793,-0.030494293197989464
0.5,0.048046608,0.31174654,0,-0.08964250236749649,0.5503669381141663,-2.5927581787109375,0.058041952550411224,0.21607692539691925,0.016883909702301025,0.10691223293542862,0.060798436403274536,-0.06598419696092606
0.5,0.048046608,0.31174654,0,-0.08969312906265259,0.5524060130119324,-2.5925445556640625,0.058552514761686325,0.2168266326189041,0.016255533322691917,0.10957473516464233,0.06189556419849396,-0.08685420453548431
0.5,0.048046608,0.31174654,0,-0.08979310095310211,0.5545082092285156,-2.5923309326171875,0.05898731201887131,0.21768032014369965,0.015603544190526009,0.10534871369600296,0.06897645443677902,-0.09076017141342163
0.5,0.048046608,0.31174654,0,-0.08987513184547424,0.5566062927246094,-2.59210205078125,0.05941168591380119,0.2184392809867859,0.015092726796865463,0.10258281975984573,0.05823683366179466,-0.07322383671998978
0.5,0.048146263,0.31227428,0,-0.08998575061559677,0.5607894062995911,-2.5916748046875,0.0602872371673584,0.219990536570549,0.01410639751702547,0.09737112373113632,0.07068753987550735,-0.06888573616743088
0.5,0.048146263,0.31227428,0,-0.09009282290935516,0.5629303455352783,-2.5914459228515625,0.06071661785244942,0.2208765149116516,0.013623599894344807,0.10677459090948105,0.07180353254079819,-0.07039307802915573
0.5,0.048146263,0.31227428,0,-0.09018120169639587,0.565067708492279,-2.5912322998046875,0.061166681349277496,0.22184517979621887,0.013126122765243053,0.10784152895212173,0.08326473087072372,-0.07193907350301743
0.5,0.048146263,0.31227428,0,-0.09025127440690994,0.5672024488449097,-2.5910186767578125,0.0616108737885952,0.2228255569934845,0.012717687524855137,0.10563040524721146,0.08581800758838654,-0.060528047382831573
0.5,0.048146263,0.31227428,0,-0.09042292088270187,0.5715214610099792,-2.5905914306640625,0.06246867775917053,0.22495687007904053,0.012074084021151066,0.10627582669258118,0.10222247242927551,-0.04509323835372925
0.5,0.048146263,0.31227428,0,-0.09052269160747528,0.573704719543457,-2.59039306640625,0.06292083114385605,0.22610226273536682,0.011824607849121094,0.11077288538217545,0.10407742857933044,-0.04110252112150192
0.5,0.048146263,0.31227428,0,-0.09060342609882355,0.5758864283561707,-2.5901947021484375,0.06338832527399063,0.22729380428791046,0.011603359133005142,0.1111447885632515,0.1109621524810791,-0.03728828951716423
0.5,0.048146263,0.31227428,0,-0.09066525846719742,0.5780670046806335,-2.589996337890625,0.06390643119812012,0.2284896820783615,0.011383280158042908,0.11596681922674179,0.11259078234434128,-0.03686407208442688
0.5,0.048146263,0.31227428,0,-0.09088301658630371,0.5825146436691284,-2.5895843505859375,0.06474614888429642,0.23117795586585999,0.011016057804226875,0.1097046285867691,0.13374829292297363,-0.030528752133250237
0.5,0.048146263,0.31227428,0,-0.09096334129571915,0.5847386717796326,-2.5894012451171875,0.06514009833335876,0.23258526623249054,0.010844466276466846,0.10335775464773178,0.1380845457315445,-0.030897555872797966
0.5,0.048274208,0.31295177,0,-0.09102528542280197,0.5869654417037964,-2.589202880859375,0.06561285257339478,0.23406003415584564,0.010751349851489067,0.11163154989480972,0.1472582370042801,-0.02081598900258541
0.5,0.048274208,0.31295177,0,-0.09112031012773514,0.5892470479011536,-2.589019775390625,0.06606416404247284,0.23563086986541748,0.01071341522037983,0.11231005936861038,0.155209481716156,-0.013902316801249981
0.5,0.048274208,0.31295177,0,-0.09125211089849472,0.5938146710395813,-2.5886688232421875,0.06702228635549545,0.2387991100549698,0.010507904924452305,0.11420894414186478,0.15721701085567474,-0.02571847103536129
0.5,0.048274208,0.31295177,0,-0.0912897139787674,0.5961012244224548,-2.5884857177734375,0.06744323670864105,0.24041715264320374,0.010335140861570835,0.10389772802591324,0.16457124054431915,-0.02998206578195095
0.5,0.048274208,0.31295177,0,-0.09137288480997086,0.5984361171722412,-2.58831787109375,0.0678635761141777,0.2420760542154312,0.010220357216894627,0.10848679393529892,0.16670115292072296,-0.02318108268082142
0.5,0.048274208,0.31295177,0,-0.09143665432929993,0.6007727980613708,-2.588134765625,0.06834008544683456,0.24370048940181732,0.010004262439906597,0.11393428593873978,0.16361857950687408,-0.03558769449591637
0.5,0.048274208,0.31295177,0,-0.09150729328393936,0.6054515838623047,-2.587799072265625,0.0692014992237091,0.24690857529640198,0.009722894057631493,0.10343573987483978,0.16182555258274078,-0.02186279557645321
0.5,0.048274208,0.31295177,0,-0.09157751500606537,0.6078484058380127,-2.587615966796875,0.06961514055728912,0.24856625497341156,0.009596548974514008,0.10708332061767578,0.16614799201488495,-0.024716833606362343
0.5,0.048274208,0.31295177,0,-0.09162859618663788,0.6102468967437744,-2.5874481201171875,0.07001550495624542,0.25022977590560913,0.009425878524780273,0.10386592149734497,0.16814415156841278,-0.0299969669431448
0.5,0.048274208,0.31295177,0,-0.09166092425584793,0.6126471757888794,-2.5872802734375,0.0704432800412178,0.251858115196228,0.009266311302781105,0.10577530413866043,0.16498084366321564,-0.028355976566672325
0.5,0.048442915,0.31384507,0,-0.09172986447811127,0.6175137758255005,-2.5869293212890625,0.07119081169366837,0.255055695772171,0.008983276784420013,0.09834215044975281,0.1549305021762848,-0.028545500710606575
0.5,0.048442915,0.31384507,0,-0.09176631271839142,0.6199787855148315,-2.586761474609375,0.07155535370111465,0.2566531002521515,0.00889255665242672,0.09889332205057144,0.15916979312896729,-0.019378026947379112
0.5,0.048442915,0.31384507,0,-0.09178433567285538,0.6224444508552551,-2.5865936279296875,0.07193733751773834,0.2581601142883301,0.008779162541031837,0.099568210542202,0.14911584556102753,-0.021976882591843605
0.5,0.048442915,0.31384507,0,-0.09178412705659866,0.6249107122421265,-2.5864410400390625,0.07230081409215927,0.25965970754623413,0.008607564494013786,0.09578856080770493,0.1493985950946808,-0.028839798644185066
0.5,0.048442915,0.31384507,0,-0.09179294854402542,0.6299089789390564,-2.58612060546875,0.0730176493525505,0.2626386880874634,0.008297841064631939,0.09318096935749054,0.1455749124288559,-0.023964790627360344
0.5,0.048442915,0.31384507,0,-0.09180135279893875,0.6324399709701538,-2.5859527587890625,0.07338625937700272,0.26408517360687256,0.008125401102006435,0.09766533970832825,0.14008475840091705,-0.02938275970518589
0.5,0.048442915,0.31384507,0,-0.09179157018661499,0.6349704265594482,-2.5858001708984375,0.07374851405620575,0.2654823660850525,0.007974055595695972,0.0954032689332962,0.13515369594097137,-0.026517080143094063
0.5,0.048442915,0.31384507,0,-0.09176383912563324,0.6375002861022949,-2.58563232421875,0.0741325318813324,0.2668389081954956,0.007830618880689144,0.09669604152441025,0.13126307725906372,-0.02530636079609394
0.5,0.048442915,0.31384507,0,-0.09176764637231827,0.640095591545105,-2.5854644775390625,0.07446850091218948,0.2681921124458313,0.00770734203979373,0.09310153871774673,0.1256987452507019,-0.023107973858714104
0.5,0.048442915,0.31384507,0,-0.09175333380699158,0.6426888108253479,-2.5853118896484375,0.07479116320610046,0.26946181058883667,0.0075543662533164024,0.08998021483421326,0.11654321849346161,-0.02659577690064907
0.6000000000000001,0.057502326,0.37151724,0,-0.09167183190584183,0.647867739200592,-2.58502197265625,0.0754430890083313,0.2718593180179596,0.007237834390252829,0.0868266373872757,0.10918033868074417,-0.02920534275472164
0.6000000000000001,0.057502326,0.37151724,0,-0.09165230393409729,0.6505268812179565,-2.5848846435546875,0.07571770995855331,0.2730378806591034,0.0070612020790576935,0.08334683626890182,0.10172354429960251,-0.028613952919840813
0.6000000000000001,0.057502326,0.37151724,0,-0.09161663800477982,0.6531837582588196,-2.5847320556640625,0.07601244002580643,0.2741855978965759,0.006899448577314615,0.08461907505989075,0.0989210307598114,-0.02656318061053753
0.6000000000000001,0.057502326,0.37151724,0,-0.09149263799190521,0.658484935760498,-2.58447265625,0.07673750072717667,0.27626192569732666,0.006526593584567308,0.0929461196064949,0.08645367622375488,-0.028250737115740776
0.6000000000000001,0.057502326,0.37151724,0,-0.09146419167518616,0.6612026691436768,-2.5843353271484375,0.07701543718576431,0.27731236815452576,0.006280873436480761,0.08353039622306824,0.08367183059453964,-0.03713834658265114
0.6000000000000001,0.057502326,0.37151724,0,-0.09141799062490463,0.6639146208763123,-2.5841827392578125,0.07735171169042587,0.2782396376132965,0.006106954999268055,0.08941540867090225,0.06963447481393814,-0.02832617424428463
0.6000000000000001,0.057502326,0.37151724,0,-0.09127296507358551,0.6693199872970581,-2.583892822265625,0.07798046618700027,0.27997276186943054,0.005406662821769714,0.08552644401788712,0.0631096139550209,-0.06284657120704651
0.6000000000000001,0.057502326,0.37151724,0,-0.09123540669679642,0.6720728278160095,-2.5837554931640625,0.07834438234567642,0.28084659576416016,0.004773905500769615,0.09416704624891281,0.06146952882409096,-0.08550239354372025
0.6000000000000001,0.057502326,0.37151724,0,-0.09118088334798813,0.674820601940155,-2.5836181640625,0.07860549539327621,0.28175798058509827,0.004108970519155264,0.0800381749868393,0.06724909693002701,-0.0893380418419838
0.6000000000000001,0.057611488,0.3720917,0,-0.09110879898071289,0.6775617599487305,-2.58349609375,0.07895336300134659,0.2826007604598999,0.003591204760596156,0.08950867503881454,0.059996966272592545,-0.07076048851013184
0.6000000000000001,0.057611488,0.3720917,0,-0.09097892045974731,0.683069109916687,-2.583221435546875,0.07955338060855865,0.284221351146698,0.002567242830991745,0.08035475760698318,0.05856306105852127,-0.07283081859350204
0.6000000000000001,0.057611488,0.3720917,0,-0.09092088043689728,0.685835063457489,-2.5830841064453125,0.07985629141330719,0.2850569486618042,0.002017523627728224,0.08601231127977371,0.05935414507985115,-0.07575424015522003
0.6000000000000001,0.057611488,0.3720917,0,-0.09084506332874298,0.6885945200920105,-2.58294677734375,0.08015770465135574,0.28596997261047363,0.0014898357912898064,0.08443151414394379,0.07030858099460602,-0.07279495894908905
0.6000000000000001,0.057611488,0.3720917,0,-0.09075168520212173,0.6913483738899231,-2.5828094482421875,0.08049843460321426,0.28690001368522644,0.001056429697200656,0.0879894569516182,0.07366713136434555,-0.060810238122940063
0.6000000000000001,0.057611488,0.3720917,0,-0.09064340591430664,0.6969579458236694,-2.5825347900390625,0.08114095777273178,0.28894373774528503,0.0003898942668456584,0.08863099664449692,0.08817211538553238,-0.04227133095264435
0.6000000000000001,0.057611488,0.3720917,0,-0.0905623510479927,0.6997565627098083,-2.5824127197265625,0.08152316510677338,0.2900325357913971,0.00020452233729884028,0.0953703224658966,0.09195601940155029,-0.029937827959656715
0.6000000000000001,0.057611488,0.3720917,0,-0.09046325832605362,0.7025506496429443,-2.5822906494140625,0.08186975121498108,0.2911355793476105,-1.995448474190198e-05,0.08954015374183655,0.09497921168804169,-0.034627966582775116
0.6000000000000001,0.057611488,0.3720917,0,-0.09041047096252441,0.7053869366645813,-2.5821380615234375,0.08213295042514801,0.29237186908721924,-0.00020798560581170022,0.08377784490585327,0.1090928465127945,-0.030957160517573357
0.6000000000000001,0.057611488,0.3720917,0,-0.09025061875581741,0.7110485434532166,-2.5818634033203125,0.0827709436416626,0.2948695719242096,-0.0004287254123482853,0.0944252759218216,0.1136334091424942,-0.017710493877530098
0.6000000000000001,0.057728127,0.37270546,0,-0.09014376252889633,0.7138746380805969,-2.5817413330078125,0.08307421207427979,0.2961590886116028,-0.0005168718053027987,0.08451510220766068,0.11947222799062729,-0.017835291102528572
0.6000000000000001,0.057728127,0.37270546,0,-0.09001944214105606,0.7166982889175415,-2.5816192626953125,0.08343157172203064,0.2974597215652466,-0.0006110656540840864,0.0899294912815094,0.12204334139823914,-0.018390825018286705
0.6000000000000001,0.057728127,0.37270546,0,-0.08993656933307648,0.7195756435394287,-2.58148193359375,0.08373875916004181,0.29884177446365356,-0.0006745263235643506,0.08787770569324493,0.12853790819644928,-0.014803371392190456
0.6000000000000001,0.057728127,0.37270546,0,-0.08983568847179413,0.7224504947662354,-2.5813446044921875,0.08404875546693802,0.300214946269989,-0.0007184374262578785,0.08680609613656998,0.12867306172847748,-0.012157483957707882
0.6000000000000001,0.057728127,0.37270546,0,-0.08958104252815247,0.728196918964386,-2.5811004638671875,0.08472055941820145,0.3029922544956207,-0.0007499261409975588,0.08514136075973511,0.13621701300144196,-0.010413582436740398
0.6000000000000001,0.057728127,0.37270546,0,-0.08948682993650436,0.7311210632324219,-2.580963134765625,0.0850735455751419,0.30448272824287415,-0.0008226960781030357,0.09360796213150024,0.14174143970012665,-0.015988944098353386
0.6000000000000001,0.057728127,0.37270546,0,-0.08937442302703857,0.734043538570404,-2.580841064453125,0.08539259433746338,0.30597490072250366,-0.0008753365837037563,0.08795217424631119,0.14328670501708984,-0.013268551789224148
0.6000000000000001,0.057728127,0.37270546,0,-0.08909652382135391,0.7398833632469177,-2.580596923828125,0.08605228364467621,0.308828741312027,-0.0010457414900884032,0.08554888516664505,0.14016932249069214,-0.01437635999172926
0.6000000000000001,0.057728127,0.37270546,0,-0.08899325877428055,0.7428596019744873,-2.580474853515625,0.08632509410381317,0.3102854788303375,-0.0010866541415452957,0.08402448147535324,0.13708333671092987,-0.011777970008552074
0.6000000000000001,0.057728127,0.37270546,0,-0.088872030377388,0.7458337545394897,-2.580352783203125,0.08665984123945236,0.31177031993865967,-0.0011421535164117813,0.09033982455730438,0.14196844398975372,-0.013403127901256084
0.7000000000000001,0.066831335,0.43023127,0,-0.08873303234577179,0.7488062381744385,-2.5802459716796875,0.08697731047868729,0.3132398724555969,-0.0012838849797844887,0.08679267019033432,0.14139705896377563,-0.023970844224095345
0.7000000000000001,0.066831335,0.43023127,0,-0.08846559375524521,0.7548089623451233,-2.58001708984375,0.08759351819753647,0.31596511602401733,-0.0013121204683557153,0.08686748147010803,0.11985061317682266,-0.007412395905703306
0.7000000000000001,0.066831335,0.43023127,0,-0.08833587914705276,0.7578359842300415,-2.5799102783203125,0.08798354864120483,0.3173413872718811,-0.001403397647663951,0.09791514277458191,0.12745675444602966,-0.01781107671558857
0.7000000000000001,0.066831335,0.43023127,0,-0.08818832039833069,0.7608602046966553,-2.579803466796875,0.08824538439512253,0.3186524510383606,-0.0014165746979415417,0.08048401772975922,0.12066227942705154,-0.007858033291995525
0.7000000000000001,0.066831335,0.43023127,0,-0.08802377432584763,0.7638809084892273,-2.5796966552734375,0.08852081000804901,0.3198261857032776,-0.0015167910605669022,0.08081074804067612,0.10481484979391098,-0.0185528751462698
0.7000000000000001,0.066831335,0.43023127,0,-0.08776954561471939,0.7700530290603638,-2.5794677734375,0.08902060985565186,0.32239359617233276,-0.0017219462897628546,0.0815100446343422,0.11347096413373947,-0.016470903530716896
0.7000000000000001,0.066831335,0.43023127,0,-0.08761651813983917,0.7731330394744873,-2.5793609619140625,0.08924085646867752,0.32363417744636536,-0.002026519039645791,0.07641229778528214,0.11013748496770859,-0.044692303985357285
0.7000000000000001,0.066831335,0.43023127,0,-0.08744792640209198,0.7762106657028198,-2.579254150390625,0.0894576907157898,0.32485175132751465,-0.0025359680876135826,0.07468920946121216,0.10834001749753952,-0.07010576874017715
0.7000000000000001,0.066831335,0.43023127,0,-0.08732829988002777,0.7793513536453247,-2.5791473388671875,0.08971843868494034,0.3260655105113983,-0.0031028883531689644,0.08548397570848465,0.10234081000089645,-0.07844948768615723
0.7000000000000001,0.066955864,0.4308819,0,-0.0870363637804985,0.7856189012527466,-2.578948974609375,0.09020127356052399,0.3285777270793915,-0.003984048962593079,0.07977592200040817,0.11025194078683853,-0.062445640563964844
0.7000000000000001,0.066955864,0.4308819,0,-0.08686469495296478,0.7887465357780457,-2.5788726806640625,0.09049424529075623,0.3298039436340332,-0.004454934503883123,0.0850975438952446,0.10812690854072571,-0.06579188257455826
0.7000000000000001,0.066955864,0.4308819,0,-0.08673153072595596,0.7919442653656006,-2.5787811279296875,0.09075970202684402,0.3310847580432892,-0.0048828101716935635,0.08562171459197998,0.10865475237369537,-0.06105051934719086
0.7000000000000001,0.066955864,0.4308819,0,-0.08658065646886826,0.795137345790863,-2.5786895751953125,0.09103484451770782,0.3323862552642822,-0.0052632479928433895,0.08533105254173279,0.11272605508565903,-0.055195294320583344
0.7000000000000001,0.066955864,0.4308819,0,-0.08641249686479568,0.7983264327049255,-2.5785980224609375,0.09127926081418991,0.3337264955043793,-0.005585862323641777,0.08003097772598267,0.11901146173477173,-0.04774191975593567
0.7000000000000001,0.066955864,0.4308819,0,-0.08622728288173676,0.8015117645263672,-2.5785064697265625,0.09159354865550995,0.33505240082740784,-0.005789658986032009,0.08734145015478134,0.11862071603536606,-0.03267079219222069
0.7000000000000001,0.066955864,0.4308819,0,-0.08592407405376434,0.8080049753189087,-2.578338623046875,0.09207449108362198,0.33804792165756226,-0.0061140586622059345,0.08381619304418564,0.1388118416070938,-0.026696359738707542
0.7000000000000001,0.066955864,0.4308819,0,-0.08574617654085159,0.8112473487854004,-2.5782623291015625,0.09239938110113144,0.339537113904953,-0.006250322796404362,0.08992332220077515,0.136629119515419,-0.024683771654963493
0.7000000000000001,0.066955864,0.4308819,0,-0.08555098623037338,0.8144873976707458,-2.57818603515625,0.09269357472658157,0.34109416604042053,-0.006369291339069605,0.08467034250497818,0.14651961624622345,-0.022295860573649406
0.7000000000000001,0.066955864,0.4308819,0,-0.08517739176750183,0.8210287094116211,-2.578033447265625,0.09318911284208298,0.34437230229377747,-0.006425174418836832,0.08002308011054993,0.157608762383461,-0.009093432687222958
0.7000000000000001,0.06711438,0.43171,0,-0.08499820530414581,0.8243298530578613,-2.5779571533203125,0.09349310398101807,0.3460260033607483,-0.006468618288636208,0.08764120191335678,0.15593712031841278,-0.012952367775142193
0.7000000000000001,0.06711438,0.43171,0,-0.0848015621304512,0.8276296854019165,-2.5778961181640625,0.09377659112215042,0.34769633412361145,-0.006466308608651161,0.08365289121866226,0.15944471955299377,-0.007010995876044035
0.7000000000000001,0.06711438,0.43171,0,-0.08441955596208572,0.8342868685722351,-2.5777587890625,0.09439206123352051,0.3510795533657074,-0.00647237803786993,0.08891817927360535,0.1567353457212448,-0.007672234904021025
0.7000000000000001,0.06711438,0.43171,0,-0.0842333659529686,0.8376435041427612,-2.57769775390625,0.09467879682779312,0.35281267762184143,-0.006393706426024437,0.08552591502666473,0.16532261669635773,0.0026584600564092398
0.7000000000000001,0.06711438,0.43171,0,-0.08402997255325317,0.8409993052482605,-2.57763671875,0.09491351991891861,0.354510098695755,-0.006386582273989916,0.07760101556777954,0.16232500970363617,-0.006071757059544325
0.7000000000000001,0.06711438,0.43171,0,-0.08380977809429169,0.8443548083305359,-2.5775909423828125,0.09519204497337341,0.3562483489513397,-0.006403525825589895,0.08169382065534592,0.1688787192106247,-0.008567235432565212
0.7000000000000001,0.06711438,0.43171,0,-0.08343269675970078,0.8511641621589661,-2.5774688720703125,0.09577889740467072,0.3595975935459137,-0.006379565689712763,0.08907747268676758,0.15996219217777252,-0.006129033397883177
0.7000000000000001,0.06711438,0.43171,0,-0.08321778476238251,0.8545671701431274,-2.577423095703125,0.09604120254516602,0.36124736070632935,-0.006393778137862682,0.08078323304653168,0.15715686976909637,-0.008592846803367138
0.7000000000000001,0.06711438,0.43171,0,-0.0829860270023346,0.8579691648483276,-2.577362060546875,0.09632008522748947,0.36284101009368896,-0.006427628453820944,0.08148118853569031,0.15161404013633728,-0.010843387804925442
0.7000000000000001,0.06711438,0.43171,0,-0.08279675990343094,0.8614060878753662,-2.577301025390625,0.0966038629412651,0.3644598126411438,-0.006445005070418119,0.08590709418058395,0.15234018862247467,-0.009511130861938
0.8,0.07630191,0.48923895,0,-0.08236716687679291,0.8682791590690613,-2.577178955078125,0.09711691737174988,0.36763593554496765,-0.006485069170594215,0.07779849320650101,0.1450403481721878,-0.011643393896520138
0.8,0.07630191,0.48923895,0,-0.0821269303560257,0.8717136383056641,-2.5771484375,0.09739644080400467,0.36914417147636414,-0.0065271323546767235,0.08124153316020966,0.14264048635959625,-0.011532100848853588
0.8,0.07630191,0.48923895,0,-0.08194885402917862,0.8751776814460754,-2.5771026611328125,0.09760825335979462,0.3706323802471161,-0.006543794181197882,0.07860945165157318,0.13822118937969208,-0.008622183464467525
0.8,0.07630191,0.48923895,0,-0.08175266534090042,0.8786396980285645,-2.5770721435546875,0.0979047566652298,0.3720743954181671,-0.0065995315089821815,0.0877053514122963,0.13387243449687958,-0.013310461305081844
0.8,0.07630191,0.48923895,0,-0.08130719512701035,0.8855560421943665,-2.576995849609375,0.09843040257692337,0.3746986389160156,-0.006576150190085173,0.07939711958169937,0.12524469196796417,-0.004293862264603376
0.8,0.07630191,0.48923895,0,-0.08114028722047806,0.889042317867279,-2.57696533203125,0.09861219674348831,0.3759656548500061,-0.0066069927997887135,0.0768449455499649,0.1129041239619255,-0.009995418600738049
0.8,0.07630191,0.48923895,0,-0.08095686882734299,0.8925268650054932,-2.576934814453125,0.0987449586391449,0.3772392272949219,-0.006590564269572496,0.06933616101741791,0.11482548713684082,-0.0039022413548082113
0.8,0.07630191,0.48923895,0,-0.08075609803199768,0.8960080742835999,-2.576904296875,0.09897088259458542,0.37842079997062683,-0.006786732468754053,0.07947152853012085,0.10464413464069366,-0.030189750716090202
0.8,0.07630191,0.48923895,0,-0.0803707167506218,0.9029932022094727,-2.57684326171875,0.0993594378232956,0.38080424070358276,-0.00770766893401742,0.07720913738012314,0.10436651855707169,-0.06672879308462143
0.8,0.07630191,0.48923895,0,-0.08018521219491959,0.9064967632293701,-2.576812744140625,0.09964489191770554,0.38198208808898926,-0.008025632239878178,0.0888012945652008,0.1049795001745224,-0.04619313031435013
0.8,0.07645415,0.49002773,0,-0.07998159527778625,0.9099965691566467,-2.5767822265625,0.09985660761594772,0.38305625319480896,-0.008390788920223713,0.07806199789047241,0.09326266497373581,-0.051899343729019165
0.8,0.07645415,0.49002773,0,-0.07976053655147552,0.9134928584098816,-2.5767669677734375,0.10005223751068115,0.38419440388679504,-0.008751481771469116,0.07456948608160019,0.10246699303388596,-0.051153820008039474
0.8,0.07645415,0.49002773,0,-0.07939375191926956,0.9205208420753479,-2.5767059326171875,0.10046938806772232,0.38642263412475586,-0.009436285123229027,0.08147691935300827,0.10392779111862183,-0.04893261566758156
0.8,0.07645415,0.49002773,0,-0.07918424159288406,0.9240313768386841,-2.5766754150390625,0.10070677101612091,0.38754603266716003,-0.00967151764780283,0.08115508407354355,0.10233113914728165,-0.03654276579618454
0.8,0.07645415,0.49002773,0,-0.07895684242248535,0.9275388717651367,-2.576629638671875,0.10099272429943085,0.3886926770210266,-0.009815024212002754,0.08574499934911728,0.10634709149599075,-0.02486398257315159
0.8,0.07645415,0.49002773,0,-0.07871191948652267,0.9310441017150879,-2.5766143798828125,0.10123104602098465,0.38988980650901794,-0.009954112581908703,0.07835040241479874,0.11374072730541229,-0.024104954674839973
0.8,0.07645415,0.49002773,0,-0.07829374819993973,0.938064455986023,-2.5765228271484375,0.10172805190086365,0.39242103695869446,-0.010031798854470253,0.07987011969089508,0.12680259346961975,-0.013563781045377254
0.8,0.07645415,0.49002773,0,-0.07805776596069336,0.9415730834007263,-2.57647705078125,0.1020045205950737,0.3937224745750427,-0.01000040490180254,0.0844244733452797,0.12991398572921753,-0.0034589318092912436
0.8,0.07645415,0.49002773,0,-0.07780412584543228,0.9450812935829163,-2.576446533203125,0.1022818312048912,0.3950287401676178,-0.010005904361605644,0.08309182524681091,0.1314806044101715,-0.007850117050111294
0.8,0.07645415,0.49002773,0,-0.07758231461048126,0.9485862255096436,-2.576385498046875,0.1025315672159195,0.39628300070762634,-0.01000055018812418,0.08237713575363159,0.12703022360801697,-0.007595400791615248
0.9,0.08565839,0.5471564,0,-0.07734229415655136,0.9520909786224365,-2.5763397216796875,0.10285138338804245,0.39760300517082214,-0.00992209929972887,0.0896628275513649,0.1361214816570282,0.0017876735655590892
0.9,0.08565839,0.5471564,0,-0.07680978626012802,0.9591051936149597,-2.5762481689453125,0.10345935076475143,0.4003990590572357,-0.009780545718967915,0.0856425017118454,0.15164591372013092,-0.002434476977214217
0.9,0.08565839,0.5471564,0,-0.07656931132078171,0.962617814540863,-2.576202392578125,0.1037154570221901,0.4017857313156128,-0.009789559058845043,0.08207033574581146,0.14686691761016846,-0.008914153091609478
0.9,0.08565839,0.5471564,0,-0.07631111145019531,0.9661315679550171,-2.5761566162109375,0.10398054867982864,0.4031602442264557,-0.009733886457979679,0.08175201714038849,0.1461457759141922,-0.0005955807282589376
0.9,0.08565839,0.5471564,0,-0.07574249804019928,0.9731638431549072,-2.576080322265625,0.10454519838094711,0.4059305489063263,-0.009911628440022469,0.08376339823007584,0.14756062626838684,-0.032342035323381424
0.9,0.08565839,0.5471564,0,-0.07546786963939667,0.9766765832901001,-2.5760498046875,0.10484130680561066,0.40730318427085876,-0.01026829332113266,0.08459464460611343,0.1495070606470108,-0.051969658583402634
0.9,0.08565839,0.5471564,0,-0.07517590373754501,0.9801915287971497,-2.576019287109375,0.10509561002254486,0.4086928367614746,-0.010664310306310654,0.0779961571097374,0.15238647162914276,-0.056665852665901184
0.9,0.08565839,0.5471564,0,-0.07486692816019058,0.9837088584899902,-2.5760040283203125,0.10537932813167572,0.41011497378349304,-0.010998011566698551,0.08033640682697296,0.15718606114387512,-0.04865973815321922
0.9,0.08565839,0.5471564,0,-0.07454168051481247,0.9872304797172546,-2.5759735107421875,0.10566830635070801,0.4115508198738098,-0.011291715316474438,0.07973309606313705,0.1593663990497589,-0.04345131665468216
0.9,0.08565839,0.5471564,0,-0.07392723858356476,0.9942927360534668,-2.5759735107421875,0.10622261464595795,0.4144767224788666,-0.011856666766107082,0.07821928709745407,0.16561637818813324,-0.04033930227160454
0.9,0.085818864,0.54798025,0,-0.07359461486339569,0.997829258441925,-2.5759735107421875,0.10652870684862137,0.4160286486148834,-0.012113100849092007,0.08193185925483704,0.17614522576332092,-0.03849481791257858
0.9,0.085818864,0.54798025,0,-0.07324514538049698,1.0013705492019653,-2.57598876953125,0.10687227547168732,0.41768860816955566,-0.012349274940788746,0.0853409692645073,0.1903076320886612,-0.03570038452744484
0.9,0.085818864,0.54798025,0,-0.07291552424430847,1.0049200057983398,-2.5760040283203125,0.10713295638561249,0.4194082021713257,-0.01252183597534895,0.07710151374340057,0.19867324829101562,-0.027951782569289207
0.9,0.085818864,0.54798025,0,-0.07220618426799774,1.0120370388031006,-2.5760345458984375,0.10776615142822266,0.4228913486003876,-0.012586456723511219,0.08243483304977417,0.20447972416877747,-0.010767950676381588
0.9,0.085818864,0.54798025,0,-0.07182762771844864,1.0156068801879883,-2.5760650634765625,0.10810037702322006,0.42474129796028137,-0.012599646113812923,0.08260245621204376,0.21649572253227234,-0.007464084308594465
0.9,0.085818864,0.54798025,0,-0.07145939022302628,1.019199013710022,-2.5760955810546875,0.10844825208187103,0.42664438486099243,-0.0125899538397789,0.08559053391218185,0.22259949147701263,-0.004805158358067274
0.9,0.085818864,0.54798025,0,-0.07067297399044037,1.0264068841934204,-2.5761566162109375,0.10915786027908325,0.43057626485824585,-0.012354922480881214,0.08137805759906769,0.23320609331130981,0.015352851711213589
0.9,0.085818864,0.54798025,0,-0.07025567442178726,1.0300235748291016,-2.576202392578125,0.10950363427400589,0.4325559437274933,-0.012218896299600601,0.08169667422771454,0.23383034765720367,0.011512077413499355
0.9,0.085818864,0.54798025,0,-0.0698508694767952,1.0336581468582153,-2.57623291015625,0.10983308404684067,0.4345957338809967,-0.012142058461904526,0.08175043016672134,0.24122168123722076,0.004086177330464125
0.9,0.085818864,0.54798025,0,-0.0694299191236496,1.0373016595840454,-2.5762786865234375,0.1102084293961525,0.43660515546798706,-0.011980353854596615,0.08628078550100327,0.23794172704219818,0.014863907359540462
1.0,0.095164895,0.60529447,0,-0.06854072958230972,1.0446158647537231,-2.5763702392578125,0.11090613901615143,0.440646231174469,-0.011588729918003082,0.08073176443576813,0.2440650463104248,0.01819850690662861
1.0,0.095164895,0.60529447,0,-0.0680745393037796,1.0482885837554932,-2.576416015625,0.11122508347034454,0.442648708820343,-0.011442277580499649,0.07596740871667862,0.23831206560134888,0.01343712117522955
1.0,0.095164895,0.60529447,0,-0.06763137876987457,1.0519839525222778,-2.5764617919921875,0.11150500178337097,0.4446200132369995,-0.0112793343141675,0.07475069165229797,0.23386751115322113,0.015608499757945538
1.0,0.095164895,0.60529447,0,-0.06717335432767868,1.055688500404358,-2.576507568359375,0.11179818958044052,0.44662725925445557,-0.011147844605147839,0.0752299427986145,0.2388886958360672,0.011829658411443233
1.0,0.095164895,0.60529447,0,-0.06621335446834564,1.0631264448165894,-2.5766143798828125,0.11238051950931549,0.4506833851337433,-0.01155608519911766,0.0751732811331749,0.24228626489639282,-0.04747463017702103
1.0,0.095164895,0.60529447,0,-0.06574247777462006,1.066878318786621,-2.5766754150390625,0.11268492788076401,0.4526338279247284,-0.011937165632843971,0.07719088345766068,0.23166456818580627,-0.05198735371232033
1.0,0.095164895,0.60529447,0,-0.06525679677724838,1.0706394910812378,-2.5767364501953125,0.11300516128540039,0.4546765089035034,-0.012238769792020321,0.07800304889678955,0.24372638761997223,-0.04191510006785393
1.0,0.095164895,0.60529447,0,-0.06475670635700226,1.0744105577468872,-2.576812744140625,0.11331196874380112,0.4567214548587799,-0.01246202364563942,0.07518790662288666,0.24452093243598938,-0.031987667083740234
1.0,0.095164895,0.60529447,0,-0.06376200914382935,1.0820220708847046,-2.57696533203125,0.11390314996242523,0.46090883016586304,-0.012992479838430882,0.0724194273352623,0.2479258030653,-0.03741168975830078
1.0,0.095164895,0.60529447,0,-0.06326743960380554,1.0858620405197144,-2.577056884765625,0.1141567975282669,0.46299508213996887,-0.013102092780172825,0.07081207633018494,0.2474445402622223,-0.017486976459622383
1.0,0.09539672,0.6064725,0,-0.06275875866413116,1.0897122621536255,-2.5771484375,0.11445075273513794,0.46515053510665894,-0.01325306948274374,0.07468077540397644,0.256626158952713,-0.022536607459187508
1.0,0.09539672,0.6064725,0,-0.0622359924018383,1.0935733318328857,-2.577239990234375,0.1147506907582283,0.46736064553260803,-0.013372310437262058,0.07428839802742004,0.2639800012111664,-0.018452292308211327
1.0,0.09539672,0.6064725,0,-0.06123480573296547,1.1013884544372559,-2.5774383544921875,0.11525587737560272,0.47189095616340637,-0.013322591781616211,0.07274477183818817,0.2706760764122009,0.0024070029612630606
1.0,0.09539672,0.6064725,0,-0.06071314960718155,1.1053133010864258,-2.5775299072265625,0.11553527414798737,0.4742238223552704,-0.013219785876572132,0.0734511986374855,0.27815309166908264,0.009373760782182217
1.0,0.09539672,0.6064725,0,-0.06017771363258362,1.1092506647109985,-2.5776214599609375,0.11581553518772125,0.476664274930954,-0.013134654611349106,0.07240229099988937,0.2921008765697479,0.007275491487234831
1.0,0.09539672,0.6064725,0,-0.059667687863111496,1.1132360696792603,-2.577728271484375,0.11612164974212646,0.47901517152786255,-0.013033092021942139,0.07929729670286179,0.27801263332366943,0.00971928145736456
1.0,0.09539672,0.6064725,0,-0.05860941857099533,1.1212457418441772,-2.57794189453125,0.11666753888130188,0.48392659425735474,-0.012682107277214527,0.07391927391290665,0.2924736440181732,0.019256489351391792
1.0,0.09539672,0.6064725,0,-0.05805954337120056,1.1252700090408325,-2.5780487060546875,0.1169968992471695,0.48639369010925293,-0.012483368627727032,0.07893839478492737,0.2939387857913971,0.022146383300423622
1.0,0.09539672,0.6064725,0,-0.0575486496090889,1.1293463706970215,-2.5781707763671875,0.11724536120891571,0.48886430263519287,-0.012299648486077785,0.07382509112358093,0.29101431369781494,0.02129608578979969
1.0,0.09539672,0.6064725,0,-0.057023778557777405,1.1334352493286133,-2.57830810546875,0.11746973544359207,0.4913245141506195,-0.01207911316305399,0.06954709440469742,0.2902957797050476,0.02595549263060093
1.1,0.10487717,0.6638639,0,-0.05593391880393028,1.141650676727295,-2.57855224609375,0.1179361343383789,0.4962241053581238,-0.011709729209542274,0.07017253339290619,0.29155075550079346,0.020845791324973106
1.1,0.10487717,0.6638639,0,-0.05541834607720375,1.1458172798156738,-2.5787353515625,0.11811461299657822,0.4986908733844757,-0.011501501314342022,0.06585848331451416,0.2889010012149811,0.02655479870736599
1.1,0.10487717,0.6638639,0,-0.054891377687454224,1.1499971151351929,-2.57891845703125,0.11826634407043457,0.5011129975318909,-0.011258495971560478,0.06156434118747711,0.2837907373905182,0.03089848719537258
1.1,0.10487717,0.6638639,0,-0.05435137450695038,1.1541889905929565,-2.5790863037109375,0.11845804750919342,0.5034847259521484,-0.011018621735274792,0.06530790030956268,0.2781546115875244,0.03050314076244831
1.1,0.10487717,0.6638639,0,-0.05379817262291908,1.158392310142517,-2.579254150390625,0.11869612336158752,0.5057998895645142,-0.010793006978929043,0.06988739967346191,0.2717294692993164,0.028716864064335823
1.1,0.10487717,0.6638639,0,-0.05280405655503273,1.166911244392395,-2.57965087890625,0.11909934133291245,0.5105581879615784,-0.01102595217525959,0.07306703180074692,0.27333420515060425,-0.027441417798399925
1.1,0.10487717,0.6638639,0,-0.0522860512137413,1.1711875200271606,-2.5798492431640625,0.11923149973154068,0.512859582901001,-0.011230463162064552,0.06092709302902222,0.26802194118499756,-0.02341391332447529
1.1,0.10487717,0.6638639,0,-0.05175525322556496,1.1754753589630127,-2.5800323486328125,0.11929567903280258,0.5151901245117188,-0.011426635086536407,0.05113132297992706,0.2723443806171417,-0.02286769263446331
1.1,0.10487717,0.6638639,0,-0.05073093622922897,1.1841084957122803,-2.5804290771484375,0.11945971846580505,0.5198122262954712,-0.011760296300053596,0.05955518037080765,0.2701418399810791,-0.021275131031870842
1.1,0.105125464,0.66511136,0,-0.05023805424571037,1.1884548664093018,-2.5806427001953125,0.1196417436003685,0.5221574306488037,-0.012005508877336979,0.07020345330238342,0.2737693786621094,-0.027701256796717644
1.1,0.105125464,0.66511136,0,-0.04973120614886284,1.1928130388259888,-2.580841064453125,0.11978986114263535,0.5245280265808105,-0.01215042918920517,0.06458687782287598,0.27758848667144775,-0.015239696018397808
1.1,0.105125464,0.66511136,0,-0.04921090975403786,1.19718337059021,-2.5810546875,0.11991869658231735,0.5268775820732117,-0.012149880640208721,0.06083517149090767,0.27557605504989624,0.002870801603421569
1.1,0.105125464,0.66511136,0,-0.04827636852860451,1.2060109376907349,-2.581512451171875,0.12004663050174713,0.5317344069480896,-0.012000678107142448,0.05894722789525986,0.283439964056015,0.020291654393076897
1.1,0.105125464,0.66511136,0,-0.047788288444280624,1.210443139076233,-2.58172607421875,0.1201617419719696,0.5341038703918457,-0.011865930631756783,0.06260455399751663,0.2777119576931,0.020376870408654213
1.1,0.105125464,0.66511136,0,-0.04728657379746437,1.2148879766464233,-2.581939697265625,0.12025099992752075,0.5365787148475647,-0.011689645238220692,0.05797521397471428,0.29147303104400635,0.025475861504673958
1.1,0.105125464,0.66511136,0,-0.046854645013809204,1.219346523284912,-2.5821685791015625,0.12027716636657715,0.5390236973762512,-0.011487100273370743,0.05717511847615242,0.2886348068714142,0.029948538169264793
1.1,0.105125464,0.66511136,0,-0.04640842229127884,1.2238179445266724,-2.5824127197265625,0.12031272798776627,0.5414290428161621,-0.0112894456833601,0.056802406907081604,0.2842187285423279,0.02921186201274395
1.1,0.105125464,0.66511136,0,-0.045478902757167816,1.2328028678894043,-2.582855224609375,0.12043818086385727,0.5463594794273376,-0.010731629095971584,0.06022389605641365,0.29137519001960754,0.039542555809020996
1.1,0.105125464,0.66511136,0,-0.045078095048666,1.2373206615447998,-2.5830841064453125,0.12045571953058243,0.548874020576477,-0.010422833263874054,0.0594785213470459,0.29882949590682983,0.04358682408928871
1.2000000000000002,0.114699736,0.7223115,0,-0.04466257616877556,1.2418522834777832,-2.58331298828125,0.12040115892887115,0.5513083934783936,-0.010115580633282661,0.04883183166384697,0.2893044054508209,0.04313233867287636
1.2000000000000002,0.114699736,0.7223115,0,-0.04379012808203697,1.2509567737579346,-2.583740234375,0.12034273892641068,0.556184709072113,-0.009512696415185928,0.052162885665893555,0.2863677442073822,0.04552583768963814
1.2000000000000002,0.114699736,0.7223115,0,-0.043410077691078186,1.2555456161499023,-2.583953857421875,0.12027142196893692,0.5585913062095642,-0.009195463731884956,0.04982670024037361,0.2860930860042572,0.044395677745342255
1.2000000000000002,0.114699736,0.7223115,0,-0.04301530122756958,1.2601475715637207,-2.58416748046875,0.12024744600057602,0.560977578163147,-0.008850852027535439,0.05407899618148804,0.2840445041656494,0.0476897656917572
1.2000000000000002,0.114699736,0.7223115,0,-0.04260607436299324,1.2647628784179688,-2.584381103515625,0.12019860744476318,0.563326358795166,-0.008509206585586071,0.049351535737514496,0.27985531091690063,0.047194767743349075
1.2000000000000002,0.114699736,0.7223115,0,-0.04218519851565361,1.269392490386963,-2.5845794677734375,0.12012089043855667,0.5656924247741699,-0.008206594735383987,0.04455338045954704,0.28232717514038086,0.0421963594853878
1.2000000000000002,0.114699736,0.7223115,0,-0.04145588353276253,1.2787517309188843,-2.5850067138671875,0.11988232284784317,0.5702880620956421,-0.007876886054873466,0.044311050325632095,0.2678433954715729,0.012568662874400616
1.2000000000000002,0.114699736,0.7223115,0,-0.04106948524713516,1.283449411392212,-2.5852203369140625,0.11980849504470825,0.5725234746932983,-0.007979096844792366,0.047927238047122955,0.2648521363735199,-0.008137895725667477
1.2000000000000002,0.114699736,0.7223115,0,-0.04066871106624603,1.2881593704223633,-2.585418701171875,0.11979304999113083,0.5747719407081604,-0.00812735315412283,0.053607214242219925,0.26700544357299805,-0.014018266461789608
1.2000000000000002,0.114699736,0.7223115,0,-0.03997761383652687,1.297666072845459,-2.58587646484375,0.11961651593446732,0.5792133808135986,-0.008260269649326801,0.046479713171720505,0.26017990708351135,0.0006668269052170217
1.2000000000000002,0.11496213,0.7236137,0,-0.03960970416665077,1.3024368286132812,-2.586090087890625,0.11953394114971161,0.5814183354377747,-0.008322999812662601,0.048276789486408234,0.2609315514564514,-0.002763233846053481
1.2000000000000002,0.11496213,0.7236137,0,-0.03922983631491661,1.3072203397750854,-2.5863189697265625,0.1194966584444046,0.5836560130119324,-0.008361264131963253,0.052710846066474915,0.2653495669364929,0.00015832482313271612
1.2000000000000002,0.11496213,0.7236137,0,-0.03891023248434067,1.3120218515396118,-2.5865478515625,0.11945983022451401,0.585898756980896,-0.00841054879128933,0.05907347425818443,0.2665069103240967,-0.00043446195195429027
