pathtime,mj_vx,mj_vy,cc_tgt,px,py,pz,vx,vy,vz,ax,ay,az
0,0.0,0.0,0,-0.009115340188145638,0.020618386566638947,-2.58984375,0.01200478058308363,0.006354046985507011,0.0014579022536054254,-0.0028007852379232645,-0.017575670033693314,0.015108845196664333
0,0.0,0.0,0,-0.00876501016318798,0.02073662541806698,-2.58984375,0.012163020670413971,0.006195647642016411,0.0015489938668906689,0.00239269039593637,-0.02477138303220272,0.009581445716321468
0,0.0,0.0,0,-0.008419298566877842,0.020852165296673775,-2.5898590087890625,0.012307533994317055,0.006099071353673935,0.0016240420518442988,0.0011280184844508767,-0.016902396455407143,0.007625668775290251
0,0.0,0.0,0,-0.0080783786252141,0.02096531353890896,-2.5898590087890625,0.012371417135000229,0.005986930802464485,0.0017845940310508013,-0.008511723950505257,-0.018710363656282425,0.018361954018473625
0,0.0,0.0,0,-0.007410546764731407,0.021184271201491356,-2.5898590087890625,0.012603893876075745,0.005744487978518009,0.0020380448549985886,-0.0009629292762838304,-0.020801544189453125,0.015939584001898766
0,0.0,0.0,0,-0.00703964289277792,0.021274195984005928,-2.58984375,0.012715911492705345,0.0056191314943134785,0.002186786849051714,-0.005617773160338402,-0.018697340041399002,0.01627206616103649
0,0.0,0.0,0,-0.006674005184322596,0.02136201225221157,-2.5898284912109375,0.012818926014006138,0.005473117344081402,0.0022688836324959993,-0.0062332358211278915,-0.021189406514167786,0.008006113581359386
0,0.0,0.0,0,-0.006313276011496782,0.02144778147339821,-2.589813232421875,0.012956627644598484,0.005377748981118202,0.0022831950336694717,-0.0014016976347193122,-0.014768886379897594,-0.0004041939682792872
0,0.0,0.0,0,-0.005559203214943409,0.021595943719148636,-2.5897674560546875,0.013150806538760662,0.005078679416328669,0.0024888175539672375,-0.006250389385968447,-0.01945302076637745,0.01289322879165411
0,0.0,0.0,0,-0.005166160874068737,0.02165861241519451,-2.589752197265625,0.01333297323435545,0.004937313962727785,0.0025906201917678118,0.0010957882041111588,-0.018908310681581497,0.010513699613511562
0,0.0,0.0,0,-0.0047784242779016495,0.02171955071389675,-2.5897216796875,0.013419108465313911,0.004797634668648243,0.0026696703862398863,-0.010344868525862694,-0.018651025369763374,0.007731373887509108
0,0.0,0.0,0,-0.004396260716021061,0.02177875116467476,-2.5897064208984375,0.01350459922105074,0.004667563829571009,0.0027872673235833645,-0.009877231903374195,-0.01740431971848011,0.012731178663671017
0,0.0,0.0,0,-0.003571008564904332,0.021838529035449028,-2.58966064453125,0.013674813322722912,0.004288571886718273,0.0029673248063772917,-0.0136836227029562,-0.020943494513630867,0.008572823368012905
0,0.0,0.0,0,-0.003167730523273349,0.02186622843146324,-2.589630126953125,0.013705305755138397,0.0040887463837862015,0.002989697502925992,-0.018792415037751198,-0.0236711073666811,0.000698491872753948
0,0.0,0.0,0,-0.002770515624433756,0.02189246192574501,-2.589599609375,0.013773881830275059,0.003919659182429314,0.003076211316511035,-0.013444755226373672,-0.019848022609949112,0.008774920366704464
0,0.0,0.0,0,-0.002333403332158923,0.021902162581682205,-2.5895843505859375,0.013870076276361942,0.003748509334400296,0.0031272126361727715,-0.013517099432647228,-0.019170841202139854,0.004931352566927671
0,0.0,0.0,0,-0.001477822894230485,0.02191820554435253,-2.5895538330078125,0.014072573743760586,0.00336897699162364,0.0032122337725013494,-0.01692681573331356,-0.02466605417430401,0.005060340743511915
0,0.0,0.0,0,-0.0010594374034553766,0.021924244239926338,-2.58953857421875,0.014161515049636364,0.0031802598387002945,0.003260966157540679,-0.012481684796512127,-0.021492794156074524,0.004685483407229185
0,0.0,0.0,0,-0.000603013439103961,0.021910814568400383,-2.5895233154296875,0.014195987954735756,0.0029830250423401594,0.0032451001461595297,-0.022661499679088593,-0.021674610674381256,-0.0030305234249681234
0,0.0,0.0,0,-0.00015392729255836457,0.02189662493765354,-2.589508056640625,0.014230044558644295,0.0028241602703928947,0.0032509134616702795,-0.022010279819369316,-0.01694026030600071,-0.00029196959803812206
0,0.0,0.0,0,0.0007230925257317722,0.021867282688617706,-2.5894775390625,0.01422725711017847,0.0025027391966432333,0.003161225700750947,-0.030763881281018257,-0.018578223884105682,-0.006955116521567106
0,0.0,0.0,0,0.0011906627332791686,0.02184438705444336,-2.5894775390625,0.014259974472224712,0.0023340624757111073,0.0030827070586383343,-0.023976458236575127,-0.01884591579437256,-0.010052229277789593
0,0.0,0.0,0,0.0016507746186107397,0.021820982918143272,-2.5894622802734375,0.01428863126784563,0.0021763434633612633,0.0030728252604603767,-0.023753762245178223,-0.01751864142715931,-0.0014672985998913646
0,0.0,0.0,0,0.0021035049576312304,0.02179681695997715,-2.5894622802734375,0.01430793758481741,0.001950049540027976,0.003036974696442485,-0.024212053045630455,-0.026131438091397285,-0.004778150003403425
0,0.0,0.0,0,0.0030094189569354057,0.021741418167948723,-2.5894622802734375,0.014347653836011887,0.0016592518659308553,0.0030127207282930613,-0.0198578629642725,-0.01679448038339615,-0.007224734406918287
0,0.0,0.0,0,0.0034625970292836428,0.021710732951760292,-2.589447021484375,0.014328435994684696,0.0015109202358871698,0.0029998861718922853,-0.028793498873710632,-0.017277508974075317,-0.0018938443390652537
0,0.0,0.0,0,0.003908646292984486,0.0216798335313797,-2.589447021484375,0.014332153834402561,0.0013632432091981173,0.002986519830301404,-0.025300461798906326,-0.01724846474826336,-0.0019534488674253225
0,0.0,0.0,0,0.004347467795014381,0.021648747846484184,-2.589447021484375,0.014324905350804329,0.0012392112985253334,0.003026221413165331,-0.026002421975135803,-0.014306513592600822,0.004686880391091108
0,0.0,0.0,0,0.005252533126622438,0.021558858454227448,-2.5894317626953125,0.014300324954092503,0.0009526247740723193,0.003016136586666107,-0.026728112250566483,-0.014441434293985367,-0.005869194399565458
0,0.0,0.0,0,0.005693684332072735,0.021514052525162697,-2.58941650390625,0.014256580732762814,0.0008135035750456154,0.003027309663593769,-0.030538946390151978,-0.016088660806417465,0.000991392764262855
0,0.0,0.0,0,0.006127403117716312,0.021469103172421455,-2.58941650390625,0.01420960295945406,0.0006458395509980619,0.00297977845184505,-0.030291523784399033,-0.019674038514494896,-0.006336252670735121
0,0.0,0.0,0,0.006553516257554293,0.021424049511551857,-2.5894012451171875,0.014112153090536594,0.0005182850873097777,0.00299507612362504,-0.035966161638498306,-0.014677219092845917,0.001527368905954063
0,0.0,0.0,0,0.007438704837113619,0.021302461624145508,-2.5893707275390625,0.013926913030445576,0.0003147902898490429,0.0030445284210145473,-0.03277362138032913,-0.010014217346906662,-0.001189764472655952
0,0.0,0.0,0,0.007869861088693142,0.021242553368210793,-2.5893707275390625,0.013848170638084412,0.00016594499174971133,0.003037075512111187,-0.03418229520320892,-0.016928542405366898,-0.0012409872142598033
0,0.0,0.0,0,0.008293498307466507,0.021182894706726074,-2.58935546875,0.01379396952688694,3.101094625890255e-05,0.002975849900394678,-0.03048039600253105,-0.01521827932447195,-0.007954890839755535
0,0.0,0.0,0,0.00872940756380558,0.021102186292409897,-2.589324951171875,0.013712024316191673,-6.363466673064977e-05,0.002907038666307926,-0.03478593751788139,-0.009219261817634106,-0.009221955202519894
0,0.0,0.0,0,0.009576790034770966,0.020944178104400635,-2.58929443359375,0.013447149656713009,-0.000248193449806422,0.002877595601603389,-0.03735877946019173,-0.00954555906355381,0.0006379559054039419
0,0.0,0.0,0,0.009988582693040371,0.020866645500063896,-2.589263916015625,0.013331694528460503,-0.0003751132171601057,0.0028725338634103537,-0.037097733467817307,-0.013416106812655926,-0.0012046656338497996
0,0.0,0.0,0,0.010410549119114876,0.02077002078294754,-2.5892486572265625,0.013244420289993286,-0.0004727393970824778,0.0028720851987600327,-0.03436519578099251,-0.008853952400386333,-0.0011320224730297923
0.0,0.008774268,0.062152155,0,0.010824423283338547,0.02067486010491848,-2.5892181396484375,0.013069689273834229,-0.0005761245847679675,0.002872430020943284,-0.044680897146463394,-0.009650307707488537,-0.0010030342964455485
0.0,0.008774268,0.062152155,0,0.011629332788288593,0.02048790082335472,-2.5891571044921875,0.012899119406938553,-0.0008132827933877707,0.00280245253816247,-0.031436171382665634,-0.0100456103682518,-0.008453148417174816
0.0,0.008774268,0.062152155,0,0.012046191841363907,0.020369097590446472,-2.589141845703125,0.012754105031490326,-0.0009429394849576056,0.002804242540150881,-0.04163609817624092,-0.01116663683205843,-0.0002910382754635066
0.0,0.008774268,0.062152155,0,0.012454833835363388,0.02025163173675537,-2.589111328125,0.012627880088984966,-0.001135531929321587,0.002814092906191945,-0.03866644948720932,-0.01915586367249489,0.0007301568402908742
0.0,0.008774268,0.062152155,0,0.012855615466833115,0.020135456696152687,-2.5890960693359375,0.012479446828365326,-0.0012697729980573058,0.002814561128616333,-0.04083741456270218,-0.01198033057153225,-0.00042933967779390514
0.0,0.008774268,0.062152155,0,0.013668647967278957,0.019887402653694153,-2.5890350341796875,0.012165099382400513,-0.0015377390664070845,0.002832930302247405,-0.04189978539943695,-0.010140582919120789,0.0037481074687093496
0.0,0.008774268,0.062152155,0,0.014080568216741085,0.019756056368350983,-2.589019775390625,0.01198613177984953,-0.0016804005717858672,0.0028686325531452894,-0.046140436083078384,-0.01220120768994093,0.004011205863207579
0.0,0.008774268,0.062152155,0,0.014483500272035599,0.01962633803486824,-2.5889892578125,0.011716428212821484,-0.001786549692042172,0.002604316221550107,-0.05685090273618698,-0.0077758063562214375,-0.03347918018698692
0.0,0.008774268,0.062152155,0,0.014877467416226864,0.019498851150274277,-2.588958740234375,0.01150132343173027,-0.0018106178613379598,0.0019867196679115295,-0.0494106262922287,0.0023493748158216476,-0.07777660340070724
0.0,0.008774268,0.062152155,0,0.01572825387120247,0.01921643316745758,-2.5889129638671875,0.011189793236553669,-0.0018218240002170205,-0.0002125537139363587,-0.04653104767203331,0.007811983115971088,-0.15594856441020966
0.0,0.008774268,0.062152155,0,0.0161404050886631,0.0190800242125988,-2.588897705078125,0.011045785620808601,-0.001737915095873177,-0.0017035433556884527,-0.042951181530952454,0.016417117789387703,-0.18703144788742065
0.0,0.008774268,0.062152155,0,0.01654425635933876,0.018947193399071693,-2.588897705078125,0.010933706536889076,-0.0016094797756522894,-0.0033838243689388037,-0.0382937490940094,0.021836519241333008,-0.2106749266386032
0.0,0.008774268,0.062152155,0,0.016991963610053062,0.01880260929465294,-2.588897705078125,0.01083599217236042,-0.0013752077938988805,-0.00512103084474802,-0.04118158295750618,0.03560503572225571,-0.21832062304019928
0.0,0.008774268,0.062152155,0,0.017860250547528267,0.01853048987686634,-2.588958740234375,0.01055106334388256,-0.0005731811979785562,-0.008940630592405796,-0.04836265370249748,0.061364710330963135,-0.24100857973098755
0.0,0.008774268,0.062152155,0,0.018280623480677605,0.01840425655245781,-2.5890045166015625,0.010356585495173931,-7.705870666541159e-05,-0.010781693272292614,-0.0510147362947464,0.06787542253732681,-0.23118777573108673
0.0,0.008774268,0.062152155,0,0.018731005489826202,0.018262440338730812,-2.5890655517578125,0.01021480280905962,0.0006057426799088717,-0.012626231648027897,-0.04754134267568588,0.09251128882169724,-0.23263971507549286
0.0,0.008774268,0.062152155,0,0.01917188987135887,0.01812971569597721,-2.5891265869140625,0.010041487403213978,0.0013596597127616405,-0.014423281885683537,-0.05068592727184296,0.10122141242027283,-0.22664478421211243
0.0,0.008774268,0.062152155,0,0.020025206729769707,0.01789500191807747,-2.58929443359375,0.009707585908472538,0.0032565994188189507,-0.017796453088521957,-0.04590344801545143,0.12764014303684235,-0.21334503591060638
0.0,0.008774268,0.062152155,0,0.020438177511096,0.01779431849718094,-2.5894012451171875,0.009515912272036076,0.0043556829914450645,-0.019361134618520737,-0.050713419914245605,0.14385700225830078,-0.1974319964647293
0.0,0.008774268,0.062152155,0,0.020888878032565117,0.01768953539431095,-2.5895233154296875,0.009314579889178276,0.005554737523198128,-0.020863251760601997,-0.05594112351536751,0.15691238641738892,-0.1899529993534088
0.0,0.008774268,0.062152155,0,0.021329320967197418,0.01759803295135498,-2.58966064453125,0.009065413847565651,0.006856878753751516,-0.022220471873879433,-0.061096955090761185,0.1696223020553589,-0.17144577205181122
0.0,0.008774268,0.062152155,0,0.02217983640730381,0.017458181828260422,-2.5899658203125,0.008543426170945168,0.009813589043915272,-0.02462725341320038,-0.06584048271179199,0.2014731764793396,-0.14465627074241638
0.0,0.008774268,0.062152155,0,0.02264304645359516,0.017398033291101456,-2.590118408203125,0.008264419622719288,0.011411226354539394,-0.025705039501190186,-0.06755661964416504,0.20677737891674042,-0.13716937601566315
0.0,0.008774268,0.062152155,0,0.02309514209628105,0.017354439944028854,-2.59027099609375,0.007982115261256695,0.013127727434039116,-0.026604535058140755,-0.06709305942058563,0.22147676348686218,-0.11481297761201859
0.0,0.008774268,0.062152155,0,0.023535894230008125,0.01732814311981201,-2.5904388427734375,0.0075868577696383,0.014919547364115715,-0.027392521500587463,-0.08035874366760254,0.23075872659683228,-0.1008063480257988
0.0,0.008774268,0.062152155,0,0.024417880922555923,0.01731478050351143,-2.5907745361328125,0.006796904839575291,0.018579600378870964,-0.028599610552191734,-0.08243551850318909,0.23583278059959412,-0.0700419694185257
0.0,0.008774268,0.062152155,0,0.024858849123120308,0.017328331246972084,-2.5909576416015625,0.0064193145371973515,0.020492542535066605,-0.02909952774643898,-0.07901139557361603,0.24599482119083405,-0.06520421802997589
0.0,0.008774268,0.062152155,0,0.025287600234150887,0.01736072637140751,-2.59112548828125,0.005927482154220343,0.022473258897662163,-0.02950059436261654,-0.09243515133857727,0.25439924001693726,-0.05276966467499733
0.0,0.008774268,0.062152155,0,0.025703858584165573,0.01741260290145874,-2.59130859375,0.0053965081460773945,0.024557214230298996,-0.029817719012498856,-0.09649518132209778,0.26724401116371155,-0.04220055043697357
0.0,0.008774268,0.062152155,0,0.026559721678495407,0.017547715455293655,-2.5916595458984375,0.004167672712355852,0.028651103377342224,-0.03025776334106922,-0.10931118577718735,0.2657040059566498,-0.02861069329082966
0.0,0.008774268,0.062152155,0,0.026966555044054985,0.017643960192799568,-2.591827392578125,0.003563330974429846,0.030705779790878296,-0.030314337462186813,-0.10570402443408966,0.26393407583236694,-0.010400078259408474
0.0,0.008774268,0.062152155,0,0.027359848842024803,0.017760179936885834,-2.5919952392578125,0.002890582662075758,0.03285209462046623,-0.03031432069838047,-0.11345183849334717,0.27532628178596497,-0.0032288951333612204
0.0,0.008774268,0.062152155,0,0.027761226519942284,0.017883777618408203,-2.5921478271484375,0.0021542629692703485,0.03505013883113861,-0.030270637944340706,-0.12215621769428253,0.28179657459259033,0.0013867391971871257
0.0,0.008774268,0.062152155,0,0.028520962223410606,0.01819327473640442,-2.59246826171875,0.0007119301008060575,0.039388906210660934,-0.030111990869045258,-0.1191171258687973,0.28007423877716064,0.008036847226321697
0.0,0.008774268,0.062152155,0,0.028879821300506592,0.018378786742687225,-2.592620849609375,-3.7159770727157593e-07,0.04150242730975151,-0.02988496422767639,-0.11683662235736847,0.27102795243263245,0.024653038010001183
0.0,0.008774268,0.062152155,0,0.029229948297142982,0.01857227087020874,-2.5927581787109375,-0.0007294764509424567,0.043622616678476334,-0.029580578207969666,-0.11782689392566681,0.2721571922302246,0.033101994544267654
0.0,0.008774268,0.062152155,0,0.029565976932644844,0.018786223605275154,-2.5928955078125,-0.001563460798934102,0.045782290399074554,-0.02925085462629795,-0.13024166226387024,0.2770060896873474,0.036414243280887604
0.0,0.008774268,0.062152155,0,0.030187619850039482,0.019267112016677856,-2.5931549072265625,-0.0032660828437656164,0.050085604190826416,-0.028369884938001633,-0.1309317797422409,0.27359285950660706,0.05197012424468994
0.0,0.008774268,0.062152155,0,0.030461473390460014,0.019518587738275528,-2.59326171875,-0.004183831624686718,0.05213650315999985,-0.027816446498036385,-0.13527870178222656,0.2654150426387787,0.0630444809794426
0.0,0.008774268,0.062152155,0,0.030720774084329605,0.019789934158325195,-2.593353271484375,-0.005140906665474176,0.05416629835963249,-0.02729114331305027,-0.13966004550457,0.26261892914772034,0.05970755219459534
0.0,0.008774268,0.062152155,0,0.030965618789196014,0.020080910995602608,-2.59344482421875,-0.0060477363876998425,0.05616018921136856,-0.02670397236943245,-0.13285884261131287,0.25797027349472046,0.06761587411165237
0.0,0.008774268,0.062152155,0,0.03140728548169136,0.020703580230474472,-2.593597412109375,-0.007741269189864397,0.060062676668167114,-0.02527097798883915,-0.12442989647388458,0.24687829613685608,0.08851615339517593
0.0,0.008774268,0.062152155,0,0.031604379415512085,0.021034618839621544,-2.5936431884765625,-0.008628327399492264,0.0619393028318882,-0.0244609322398901,-0.12722288072109222,0.24386706948280334,0.09399838000535965
0.0,0.008774268,0.062152155,0,0.031784407794475555,0.021377921104431152,-2.5937042236328125,-0.009467671625316143,0.06380946934223175,-0.02369076944887638,-0.11997061967849731,0.2442675083875656,0.08922721445560455
0.0,0.008774268,0.062152155,0,0.031951479613780975,0.021739555522799492,-2.59375,-0.010339787229895592,0.06562044471502304,-0.022915925830602646,-0.12366066873073578,0.23664076626300812,0.09010405838489532
0.0,0.008774268,0.062152155,0,0.0322350449860096,0.022486960515379906,-2.59381103515625,-0.011974595487117767,0.06914659589529037,-0.02128874883055687,-0.11394361406564713,0.23023571074008942,0.09430339187383652
0.0,0.008774268,0.062152155,0,0.03235232084989548,0.022872580215334892,-2.59381103515625,-0.012756047770380974,0.0708208680152893,-0.02036808244884014,-0.10905034095048904,0.22140644490718842,0.1068711206316948
0.0,0.008774268,0.062152155,0,0.03245815634727478,0.023275159299373627,-2.59381103515625,-0.01347767561674118,0.07243336737155914,-0.019500024616718292,-0.10124742984771729,0.21339040994644165,0.10053440183401108
0.0,0.008774268,0.062152155,0,0.032552994787693024,0.02369403839111328,-2.59381103515625,-0.014158699661493301,0.07396591454744339,-0.01861577294766903,-0.09585138410329819,0.20310623943805695,0.10279099643230438
0.0,0.008774268,0.062152155,0,0.032696355134248734,0.024522608146071434,-2.59368896484375,-0.015678219497203827,0.07700471580028534,-0.0167199969291687,-0.10450314730405807,0.20204980671405792,0.10369903594255447
0.0,0.008774268,0.062152155,0,0.03274846076965332,0.024954024702310562,-2.5936279296875,-0.016457173973321915,0.07846961170434952,-0.015874864533543587,-0.10472285002470016,0.19809335470199585,0.09611155092716217
0.0,0.008774268,0.062152155,0,0.03278987109661102,0.025401070713996887,-2.59356689453125,-0.017119763419032097,0.07986356317996979,-0.01502692885696888,-0.08992541581392288,0.18884432315826416,0.096739262342453
0.0,0.008774268,0.062152155,0,0.03280285373330116,0.02582930028438568,-2.593475341796875,-0.017723744735121727,0.0812615156173706,-0.014193231239914894,-0.07895109057426453,0.19256184995174408,0.09307637065649033
0.0,0.008774268,0.062152155,0,0.032801952213048935,0.026731381192803383,-2.59326171875,-0.018855368718504906,0.08381104469299316,-0.012432396411895752,-0.07442045956850052,0.1733485460281372,0.10028667002916336
0.0,0.008774268,0.062152155,0,0.0327884815633297,0.027204258367419243,-2.5931549072265625,-0.019379986450076103,0.08508314937353134,-0.011602576822042465,-0.06855178624391556,0.17547468841075897,0.09353365004062653
0.0,0.008774268,0.062152155,0,0.03275230526924133,0.02765931375324726,-2.5930023193359375,-0.01985025778412819,0.08622270077466965,-0.010809673927724361,-0.05887775868177414,0.16178876161575317,0.0871238261461258
0.0,0.008774268,0.062152155,0,0.03270891308784485,0.028128381818532944,-2.5928497314453125,-0.020243125036358833,0.08737385272979736,-0.010050228796899319,-0.049113642424345016,0.16272872686386108,0.08334498107433319
0.0,0.008774268,0.062152155,0,0.03259994089603424,0.029099958017468452,-2.592559814453125,-0.02097827009856701,0.08943302929401398,-0.008531155996024609,-0.042353153228759766,0.14779150485992432,0.0809929296374321
0.0,0.008774268,0.062152155,0,0.032514479011297226,0.029561875388026237,-2.5923614501953125,-0.021282199770212173,0.09037613868713379,-0.0077813840471208096,-0.0339069701731205,0.14089733362197876,0.08105579018592834
0.0,0.008774268,0.062152155,0,0.03242352604866028,0.030036531388759613,-2.5921783447265625,-0.02156798355281353,0.0912642851471901,-0.007142925634980202,-0.031638458371162415,0.13342326879501343,0.0675092414021492
0.0,0.008774268,0.062152155,0,0.03232725337147713,0.03052355907857418,-2.59197998046875,-0.02182711474597454,0.09216555953025818,-0.006543497089296579,-0.028303949162364006,0.13447481393814087,0.06298767030239105
0.0,0.008774268,0.062152155,0,0.03209389001131058,0.031509749591350555,-2.5915679931640625,-0.022191820666193962,0.09391392022371292,-0.0054720500484108925,-0.009989980608224869,0.13133853673934937,0.0498797707259655
0.0,0.008774268,0.062152155,0,0.03195811063051224,0.03200913965702057,-2.5913543701171875,-0.022350406274199486,0.09481294453144073,-0.004981041885912418,-0.012099556624889374,0.13480256497859955,0.048745885491371155
0.0,0.008774268,0.062152155,0,0.031818926334381104,0.03252049908041954,-2.5911407470703125,-0.022456271573901176,0.09558533877134323,-0.004518748726695776,-0.0055946228094398975,0.1183793693780899,0.0455235093832016
0.0,0.008774268,0.062152155,0,0.03167688101530075,0.03304322808980942,-2.5909271240234375,-0.022483106702566147,0.09637270867824554,-0.004108804743736982,0.004204056691378355,0.11967534571886063,0.03933626785874367
0.0,0.008774268,0.062152155,0,0.03133947029709816,0.03407719358801842,-2.5904388427734375,-0.02254410833120346,0.09780573099851608,-0.0033499952405691147,0.011400818824768066,0.10956832766532898,0.028669366613030434
0.0,0.008774268,0.062152155,0,0.031168248504400253,0.03461050987243652,-2.5901947021484375,-0.022478505969047546,0.09848006814718246,-0.0030569774098694324,0.019115451723337173,0.10651321709156036,0.024350358173251152
0.0,0.008774268,0.062152155,0,0.03099566139280796,0.0351543202996254,-2.5899658203125,-0.022435365244746208,0.09914737939834595,-0.0027901332359761,0.01614896021783352,0.10505452007055283,0.02143624983727932
0.0,0.008774268,0.062152155,0,0.03079984150826931,0.03568590432405472,-2.5897216796875,-0.02232549339532852,0.09973260760307312,-0.0025377057027071714,0.027678141370415688,0.09642487019300461,0.019074881449341774
0.0,0.008774268,0.062152155,0,0.030406981706619263,0.036779094487428665,-2.5892333984375,-0.022091450169682503,0.10089021921157837,-0.0021215789020061493,0.029810186475515366,0.09671284258365631,0.011278781108558178
0.0,0.008774268,0.062152155,0,0.03021049313247204,0.03734060749411583,-2.5889892578125,-0.021876417100429535,0.1014801561832428,-0.002023240551352501,0.04012347012758255,0.09522707015275955,0.0008740461780689657
0.0,0.008774268,0.062152155,0,0.030014408752322197,0.0379076711833477,-2.5887603759765625,-0.02164342813193798,0.10196613520383835,-0.002027672016993165,0.042313992977142334,0.08253249526023865,-0.011633149348199368
0.0,0.008774268,0.062152155,0,0.029794855043292046,0.03846270591020584,-2.588531494140625,-0.021441087126731873,0.10248897969722748,-0.002030134666711092,0.041641734540462494,0.08866517245769501,-0.011208000592887402
0.0,0.008774268,0.062152155,0,0.029358839616179466,0.03960133343935013,-2.5880889892578125,-0.02095233090221882,0.10351838171482086,-0.002175837755203247,0.05273444205522537,0.08559107035398483,-0.023638827726244926
0.0,0.008774268,0.062152155,0,0.02914329618215561,0.04018442705273628,-2.587860107421875,-0.020628932863473892,0.10399343818426132,-0.0022513174917548895,0.05587058514356613,0.0808984711766243,-0.019568482413887978
0.0,0.008774268,0.062152155,0,0.028917409479618073,0.04075802490115166,-2.587646484375,-0.020276017487049103,0.10442884266376495,-0.0023052601609379053,0.06148604303598404,0.07735401391983032,-0.01635495387017727
0.0,0.008774268,0.062152155,0,0.02869373746216297,0.04134019836783409,-2.587432861328125,-0.01993943378329277,0.10479220747947693,-0.0024236300960183144,0.059102851897478104,0.06774184107780457,-0.02412590943276882
0.0,0.008774268,0.062152155,0,0.028254356235265732,0.0425293855369091,-2.5870208740234375,-0.019195927307009697,0.10560214519500732,-0.0027401656843721867,0.059520889073610306,0.07321605086326599,-0.028759239241480827
0.0,0.008774268,0.062152155,0,0.02801452949643135,0.043115805834531784,-2.586822509765625,-0.018816208466887474,0.10598771274089813,-0.0029001738876104355,0.06668972223997116,0.07127645611763,-0.028423497453331947
0.0,0.008774268,0.062152155,0,0.027778014540672302,0.04371054843068123,-2.5866241455078125,-0.01842229627072811,0.10633780062198639,-0.0030304077081382275,0.06806445866823196,0.06622718274593353,-0.024452803656458855
0.0,0.008774268,0.062152155,0,0.02754477597773075,0.044313397258520126,-2.5864410400390625,-0.018038513138890266,0.10672000795602798,-0.0031791299115866423,0.06640610098838806,0.06964396685361862,-0.02647656761109829
0.0,0.008774268,0.062152155,0,0.02706962823867798,0.04552655294537544,-2.586090087890625,-0.017161384224891663,0.1074010580778122,-0.003603310789912939,0.07698293030261993,0.06364547461271286,-0.03389967232942581
0.0,0.008774268,0.062152155,0,0.026828598231077194,0.04613686352968216,-2.5859222412109375,-0.0167015939950943,0.10776996612548828,-0.00383859989233315,0.07748308032751083,0.06772477924823761,-0.03618374094367027
0.0,0.008774268,0.062152155,0,0.02659144438803196,0.04675521329045296,-2.5857696533203125,-0.016325650736689568,0.10809320956468582,-0.004107707645744085,0.06656426936388016,0.0614314079284668,-0.04020938277244568
0.0,0.008774268,0.062152155,0,0.026357989758253098,0.04738103225827217,-2.5856170654296875,-0.015922538936138153,0.10836222022771835,-0.004399028141051531,0.06953102350234985,0.05408447980880737,-0.04279007762670517
0.0,0.008774268,0.062152155,0,0.025889264419674873,0.04863351956009865,-2.5853271484375,-0.015005482360720634,0.10889677703380585,-0.004967269953340292,0.07922552525997162,0.05244140326976776,-0.04261312633752823
0.0,0.008774268,0.062152155,0,0.025661811232566833,0.04927006736397743,-2.5851898193359375,-0.01451656874269247,0.10916315764188766,-0.005274180322885513,0.08021479099988937,0.053134895861148834,-0.044220589101314545
0.0,0.008774268,0.062152155,0,0.025438863784074783,0.04991370439529419,-2.585052490234375,-0.014060153625905514,0.10942444950342178,-0.00556821608915925,0.07572119683027267,0.051956430077552795,-0.04243570938706398
0.0,0.008774268,0.062152155,0,0.025203054770827293,0.050546567887067795,-2.5849151611328125,-0.013603894039988518,0.10966236889362335,-0.005882167723029852,0.07810529321432114,0.05049477890133858,-0.044621989130973816
0.0,0.008774268,0.062152155,0,0.024745870381593704,0.05183354392647743,-2.58465576171875,-0.012630644254386425,0.1101645976305008,-0.0064274524338543415,0.08314786106348038,0.05079304054379463,-0.041882969439029694
0.0,0.008774268,0.062152155,0,0.024524904787540436,0.05248764157295227,-2.5845489501953125,-0.012136374600231647,0.11045221239328384,-0.006678430829197168,0.08142012357711792,0.05503799766302109,-0.036278270184993744
0.0,0.008774268,0.062152155,0,0.02430083230137825,0.05313411355018616,-2.584442138671875,-0.011750622652471066,0.11064767837524414,-0.006891143042594194,0.06947999447584152,0.04455048218369484,-0.03132316842675209
0.0,0.008774268,0.062152155,0,0.024081306532025337,0.053787194192409515,-2.5843353271484375,-0.011279870755970478,0.11084961146116257,-0.00719938101246953,0.07959999144077301,0.044801101088523865,-0.04319427162408829
0.0,0.008774268,0.062152155,0,0.023867052048444748,0.05444711446762085,-2.584228515625,-0.010858823545277119,0.11108570545911789,-0.00751063646748662,0.07252304255962372,0.048426441848278046,-0.043429896235466
0.0,0.008774268,0.062152155,0,0.023435957729816437,0.05577210709452629,-2.5840606689453125,-0.00998848956078291,0.11149033159017563,-0.007886428385972977,0.0772138386964798,0.042316775768995285,-0.02576177753508091
0.0,0.008774268,0.062152155,0,0.023219680413603783,0.0564371719956398,-2.5839996337890625,-0.009536715224385262,0.1117020696401596,-0.008127505891025066,0.07777809351682663,0.04518905654549599,-0.03308616206049919
0.0,0.008774268,0.062152155,0,0.02300841361284256,0.05710863694548607,-2.58392333984375,-0.00907802116125822,0.11189484596252441,-0.008307013660669327,0.07812115550041199,0.042293731123209,-0.0252979788929224
0.0,0.008774268,0.062152155,0,0.022600745782256126,0.058470021933317184,-2.5838165283203125,-0.008256886154413223,0.11220701038837433,-0.008713512681424618,0.0671193078160286,0.037586770951747894,-0.02312753163278103
0.0,0.008774268,0.062152155,0,0.02239207550883293,0.05914723873138428,-2.5838165283203125,-0.007850132882595062,0.11243836581707001,-0.008922400884330273,0.07214637100696564,0.046755351126194,-0.026619525626301765
0.0,0.008774268,0.062152155,0,0.022189388051629066,0.05983142927289009,-2.5838165283203125,-0.007446489296853542,0.11261686682701111,-0.00914620142430067,0.0705498531460762,0.039465177804231644,-0.02846214734017849
0.0,0.008774268,0.062152155,0,0.021991414949297905,0.06052149087190628,-2.5838165283203125,-0.007064185105264187,0.11278360337018967,-0.009407563135027885,0.06737882643938065,0.03751350939273834,-0.03313645347952843
0.0,0.008774268,0.062152155,0,0.021589061245322227,0.06190894544124603,-2.5838470458984375,-0.0063227335922420025,0.1130821704864502,-0.009804750792682171,0.06606762856245041,0.03271211311221123,-0.01907395012676716
0.0,0.008774268,0.062152155,0,0.02138492465019226,0.0626060962677002,-2.583892822265625,-0.005958904512226582,0.11324770003557205,-0.010030456818640232,0.0664985328912735,0.036798860877752304,-0.026682855561375618
0.0,0.008774268,0.062152155,0,0.021185819059610367,0.06330922245979309,-2.5839385986328125,-0.005562272388488054,0.11341633647680283,-0.01020143274217844,0.0700635239481926,0.036730412393808365,-0.01987907849252224
0.0,0.008774268,0.062152155,0,0.020991571247577667,0.0640181377530098,-2.583984375,-0.005223267711699009,0.11357153952121735,-0.010369179770350456,0.06233644858002663,0.03460729122161865,-0.019423196092247963
0.0,0.008774268,0.062152155,0,0.020578743889927864,0.06543194502592087,-2.5840911865234375,-0.004643587861210108,0.11382915824651718,-0.010550618171691895,0.055886410176754,0.03223724290728569,-0.010500195436179638
0.0,0.008774268,0.062152155,0,0.020380841568112373,0.06614775955677032,-2.5841522216796875,-0.004314539488404989,0.11391487717628479,-0.010632854886353016,0.06134190782904625,0.025073865428566933,-0.007753259968012571
0.0,0.008774268,0.062152155,0,0.02018789015710354,0.06686883419752121,-2.5842132568359375,-0.0039708297699689865,0.11404384672641754,-0.010716109536588192,0.0626489445567131,0.03007456287741661,-0.007946974597871304
0.0,0.008774268,0.062152155,0,0.019975556060671806,0.06758994609117508,-2.58428955078125,-0.003621132578700781,0.11414831876754761,-0.010766380466520786,0.06612647324800491,0.026366762816905975,-0.0028666106518357992
0.0,0.008774268,0.062152155,0,0.019565271213650703,0.06904765218496323,-2.584442138671875,-0.0031240705866366625,0.11435122042894363,-0.010881252586841583,0.05583447217941284,0.025863029062747955,-0.0033034009393304586
0.0,0.008774268,0.062152155,0,0.019367525354027748,0.06978403776884079,-2.584503173828125,-0.002811125246807933,0.11443864554166794,-0.010937711223959923,0.059819310903549194,0.023124760016798973,-0.0039222645573318005
0.0,0.008774268,0.062152155,0,0.0191555917263031,0.07051907479763031,-2.5845947265625,-0.0025715124793350697,0.11451396346092224,-0.01092605758458376,0.052451252937316895,0.021184859797358513,0.005248002242296934
0.0,0.008774268,0.062152155,0,0.01894858479499817,0.07125897705554962,-2.5846710205078125,-0.0023331353440880775,0.11460555344820023,-0.010918539017438889,0.05170484259724617,0.02287779562175274,0.0046277414076030254
0.0,0.008774268,0.062152155,0,0.018551364541053772,0.0727538913488388,-2.5848236083984375,-0.0018274264875799417,0.11473973840475082,-0.010901959612965584,0.05231823772192001,0.017607685178518295,0.0037271527107805014
0.0,0.008774268,0.062152155,0,0.018342752009630203,0.07351332157850266,-2.5849151611328125,-0.0016342878807336092,0.11480119079351425,-0.010893996804952621,0.045260630548000336,0.01659316197037697,0.005625187885016203
0.0,0.008774268,0.062152155,0,0.01813911460340023,0.07427701354026794,-2.5850067138671875,-0.0013759732246398926,0.11484693735837936,-0.010850976221263409,0.05284588038921356,0.014366606250405312,0.009879468940198421
0.0,0.008774268,0.062152155,0,0.01794072426855564,0.0750449001789093,-2.5850982666015625,-0.0011157803237438202,0.11490830779075623,-0.010828590020537376,0.052533555775880814,0.016062341630458832,0.007119960617274046
0.1,0.0175559,0.11928379,0,0.017538709565997124,0.0765945166349411,-2.5852813720703125,-0.0007300762226805091,0.11507359892129898,-0.010678031481802464,0.04128735512495041,0.021479273214936256,0.013986601494252682
0.1,0.0175559,0.11928379,0,0.017334697768092155,0.07737640291452408,-2.5853729248046875,-0.0005872587789781392,0.11513909697532654,-0.010650655254721642,0.038588352501392365,0.015134495683014393,0.008054542355239391
0.1,0.0175559,0.11928379,0,0.017135003581643105,0.07816199213266373,-2.5854644775390625,-0.00047967879800125957,0.11511679738759995,-0.010481677018105984,0.03362840414047241,0.003946925513446331,0.025626270100474358
0.1,0.0175559,0.11928379,0,0.016939856112003326,0.07895106077194214,-2.5855712890625,-0.00029616185929626226,0.11518080532550812,-0.010337505489587784,0.04258091002702713,0.01452682726085186,0.022400634363293648
0.1,0.0175559,0.11928379,0,0.01653224229812622,0.08050521463155746,-2.58575439453125,-5.521978891920298e-05,0.11518111079931259,-0.010038954205811024,0.03277796134352684,0.004523306153714657,0.0247564148157835
0.1,0.0175559,0.11928379,0,0.01633503846824169,0.08128777891397476,-2.5858306884765625,3.727940202225e-05,0.11520469188690186,-0.010006513446569443,0.03086395561695099,0.01017242856323719,0.008121597580611706
0.1,0.0175559,0.11928379,0,0.01614205166697502,0.08207409083843231,-2.585906982421875,0.00014438775542657822,0.1152239516377449,-0.010196574963629246,0.03217215836048126,0.009418492205440998,-0.019803641363978386
0.1,0.0175559,0.11928379,0,0.015953321009874344,0.08286434412002563,-2.5859832763671875,0.00024293316528201103,0.11531989276409149,-0.010346611961722374,0.030597077682614326,0.01879490725696087,-0.014910007826983929
0.1,0.0175559,0.11928379,0,0.015529905445873737,0.08444739133119583,-2.5861358642578125,0.0003654810425359756,0.1156117171049118,-0.010312999598681927,0.025575730949640274,0.025713348761200905,0.008321831934154034
0.1,0.0175559,0.11928379,0,0.015324335545301437,0.08524607867002487,-2.5862274169921875,0.0003711558529175818,0.11580055952072144,-0.010302972979843616,0.02110784687101841,0.029720066115260124,0.0051758247427642345
0.1,0.0175559,0.11928379,0,0.015126241371035576,0.08605053275823593,-2.5863037109375,0.0004288537602405995,0.11603664606809616,-0.010367809794843197,0.025523554533720016,0.03534507751464844,-0.00429106829687953
0.1,0.0175559,0.11928379,0,0.014909560792148113,0.0868479385972023,-2.586395263671875,0.00040801402064971626,0.11639754474163055,-0.010329696349799633,0.01836429350078106,0.05157201737165451,0.008715781383216381
0.1,0.0175559,0.11928379,0,0.014488890767097473,0.08846335858106613,-2.5865631103515625,0.0005046144360676408,0.1172819510102272,-0.010038895532488823,0.02639828436076641,0.059799324721097946,0.027786007151007652
0.1,0.0175559,0.11928379,0,0.014285223558545113,0.0892820954322815,-2.5866546630859375,0.0005823402898386121,0.11790703237056732,-0.009803686290979385,0.029048308730125427,0.08404030650854111,0.03303307667374611
0.1,0.0175559,0.11928379,0,0.01406800001859665,0.0900961235165596,-2.58673095703125,0.0005892716581001878,0.11854208260774612,-0.009554918855428696,0.022294066846370697,0.08592060208320618,0.034300606697797775
0.1,0.0175559,0.11928379,0,0.013854917138814926,0.09091916680335999,-2.5868072509765625,0.000574238714762032,0.11928390711545944,-0.009275631047785282,0.018978185951709747,0.09907330572605133,0.03802729398012161
0.1,0.0175559,0.11928379,0,0.013440647162497044,0.09259536117315292,-2.586944580078125,0.0006059285369701684,0.12107411026954651,-0.00864733662456274,0.025325533002614975,0.12235260009765625,0.04281708598136902
0.1,0.0175559,0.11928379,0,0.013231695629656315,0.09345059096813202,-2.587005615234375,0.0006374567747116089,0.12212547659873962,-0.00833851471543312,0.02393936738371849,0.13651518523693085,0.041338611394166946
0.1,0.0175559,0.11928379,0,0.01302683912217617,0.09431768208742142,-2.587066650390625,0.0006076468271203339,0.12323909252882004,-0.00793454423546791,0.01574028842151165,0.14414715766906738,0.05315709486603737
0.1,0.0175559,0.11928379,0,0.01282551884651184,0.09519708156585693,-2.5871124267578125,0.0005542089929804206,0.12442610412836075,-0.007569239940494299,0.012270331382751465,0.1531728357076645,0.04825088754296303
0.1,0.0175559,0.11928379,0,0.012427263893187046,0.09699248522520065,-2.58721923828125,0.0005538587574847043,0.12694786489009857,-0.006808340549468994,0.020136546343564987,0.1616017073392868,0.05112029239535332
0.1,0.0175559,0.11928379,0,0.012230378575623035,0.0979088693857193,-2.5872802734375,0.0005266662919893861,0.12825839221477509,-0.006514049135148525,0.015674954280257225,0.16740769147872925,0.03959517553448677
0.1,0.0175559,0.11928379,0,0.012036984786391258,0.09883889555931091,-2.5873260498046875,0.000493582512717694,0.12962044775485992,-0.006221214309334755,0.014430384151637554,0.17376413941383362,0.03933580219745636
0.1,0.0175559,0.11928379,0,0.011847161687910557,0.09978265315294266,-2.587371826171875,0.00048516562674194574,0.13098262250423431,-0.005851448979228735,0.01701970398426056,0.1737193465232849,0.048879530280828476
0.1,0.0175559,0.11928379,0,0.011468044482171535,0.10172216594219208,-2.58746337890625,0.00037570821586996317,0.13393795490264893,-0.005126394797116518,0.012497111223638058,0.18689529597759247,0.04926742613315582
0.1,0.0175559,0.11928379,0,0.011284892447292805,0.10271383076906204,-2.5875091552734375,0.0003133488353341818,0.1354704201221466,-0.0047844466753304005,0.00873598549515009,0.19368906319141388,0.04540010914206505
0.1,0.0175559,0.11928379,0,0.011104661971330643,0.10372020304203033,-2.587554931640625,0.00022982151131145656,0.13698238134384155,-0.004420205485075712,0.005643744487315416,0.19114123284816742,0.04811398312449455
0.1,0.0175559,0.11928379,0,0.010925624519586563,0.10475286096334457,-2.58758544921875,0.00018317191279493272,0.13855908811092377,-0.004107033368200064,0.01033217366784811,0.19728980958461761,0.04196585714817047
0.1,0.0175559,0.11928379,0,0.010749462991952896,0.10580023378133774,-2.587615966796875,8.612462261226028e-05,0.14011497795581818,-0.0037819724529981613,0.0035909044090658426,0.19476187229156494,0.04337448254227638
0.1,0.0175559,0.11928379,0,0.010405000299215317,0.10793909430503845,-2.5876922607421875,-8.565740427002311e-05,0.14329223334789276,-0.0032699888106435537,0.002695788163691759,0.1992272287607193,0.03452039882540703
0.1,0.0175559,0.11928379,0,0.010226444341242313,0.1090615838766098,-2.5877227783203125,-0.00014930689940229058,0.14491979777812958,-0.0030079141724854708,0.008044294081628323,0.1996115744113922,0.035645436495542526
0.1,0.0175559,0.11928379,0,0.010050439275801182,0.11019834131002426,-2.5877532958984375,-0.0003046769998036325,0.14652089774608612,-0.0027176609728485346,-0.0038829382974654436,0.19647325575351715,0.03908853605389595
0.1,0.0175559,0.11928379,0,0.009877044707536697,0.11134807020425797,-2.5877838134765625,-0.00044573069317266345,0.14808842539787292,-0.002481103641912341,-0.002777051879093051,0.1927224099636078,0.03230152279138565
0.1,0.0175559,0.11928379,0,0.009536410681903362,0.11368848383426666,-2.5878448486328125,-0.0007664883742108941,0.15119342505931854,-0.0019563441164791584,-0.004965657368302345,0.19316409528255463,0.035231463611125946
0.1,0.0175559,0.11928379,0,0.009361684322357178,0.11491015553474426,-2.5878753662109375,-0.0008474497008137405,0.15273192524909973,-0.0016869085375219584,0.004839572124183178,0.1852489858865738,0.03621494024991989
0.1,0.0175559,0.11928379,0,0.009189564734697342,0.11614474654197693,-2.587890625,-0.0009395086672157049,0.1542833149433136,-0.0014189905487000942,0.002994018606841564,0.1870836317539215,0.03611808270215988
0.1,0.0175559,0.11928379,0,0.008852137252688408,0.11865291744470596,-2.58795166015625,-0.0012079526204615831,0.1573633849620819,-0.0009770805481821299,-0.0032968921586871147,0.18289917707443237,0.030833294615149498
0.1,0.0175559,0.11928379,0,0.008672067895531654,0.11995429545640945,-2.587982177734375,-0.0013854311546310782,0.15886928141117096,-0.000803524861112237,-0.007379773538559675,0.17849546670913696,0.024532897397875786
0.1,0.0175559,0.11928379,0,0.008492441847920418,0.12126592546701431,-2.5879974365234375,-0.0015800264663994312,0.16036160290241241,-0.0006044196779839694,-0.009512979537248611,0.17743006348609924,0.0276504997164011
0.1,0.0175559,0.11928379,0,0.00831462349742651,0.12258933484554291,-2.5880279541015625,-0.0017795076128095388,0.1618141233921051,-0.0003917690773960203,-0.010584401898086071,0.17270608246326447,0.029266810044646263
0.1,0.0175559,0.11928379,0,0.007936247624456882,0.125301793217659,-2.5880584716796875,-0.002108614193275571,0.16459961235523224,-3.3317512134090066e-05,-0.005307461600750685,0.1605605036020279,0.0257492046803236
0.1,0.0175559,0.11928379,0,0.007736076135188341,0.12668994069099426,-2.5880584716796875,-0.0023345109075307846,0.16598962247371674,0.00014581526920665056,-0.012009399943053722,0.1616315394639969,0.02430751733481884
0.1,0.0175559,0.11928379,0,0.007537652272731066,0.1280883550643921,-2.5880584716796875,-0.002576848492026329,0.1673336923122406,0.0003193127049598843,-0.01456317026168108,0.1561940759420395,0.023549886420369148
0.1,0.0175559,0.11928379,0,0.007341132499277592,0.12949684262275696,-2.5880584716796875,-0.0027858042158186436,0.16866858303546906,0.000450581283075735,-0.010871229693293571,0.15533839166164398,0.018219461664557457
0.1,0.0175559,0.11928379,0,0.007104614283889532,0.13094650208950043,-2.588043212890625,-0.0030632612761110067,0.1699834167957306,0.0005718265892937779,-0.015435644425451756,0.14922991394996643,0.016281845048069954
0.1,0.0175559,0.11928379,0,0.006636437028646469,0.13387098908424377,-2.5880126953125,-0.003693107981234789,0.1725127249956131,0.0008818567148409784,-0.02399265766143799,0.14329206943511963,0.026982275769114494
0.1,0.0175559,0.11928379,0,0.006404233630746603,0.13534541428089142,-2.5879974365234375,-0.003987803589552641,0.17372193932533264,0.0010181281249970198,-0.01880773715674877,0.1375131756067276,0.018073244020342827
0.1,0.0175559,0.11928379,0,0.006147928070276976,0.13685667514801025,-2.587982177734375,-0.00430466141551733,0.17492370307445526,0.0012070657685399055,-0.019436141476035118,0.13357149064540863,0.025067010894417763
0.1,0.0175559,0.11928379,0,0.005641385447233915,0.13990157842636108,-2.5879669189453125,-0.004982767626643181,0.17712879180908203,0.001407223055139184,-0.025860581547021866,0.1205434575676918,0.021276528015732765
0.1,0.0175559,0.11928379,0,0.005390896927565336,0.1414344310760498,-2.5879364013671875,-0.005282205063849688,0.17816495895385742,0.001547367894090712,-0.018949298188090324,0.11402194947004318,0.01884903572499752
0.1,0.0175559,0.11928379,0,0.005098179914057255,0.1429930180311203,-2.587921142578125,-0.005665294826030731,0.17923018336296082,0.0016572864260524511,-0.02503897249698639,0.11603023111820221,0.01509720366448164
0.1,0.0175559,0.11928379,0,0.004807817284017801,0.1445581465959549,-2.5879058837890625,-0.005999213084578514,0.18029184639453888,0.0017468768637627363,-0.01952766254544258,0.11598482728004456,0.012517905794084072
0.1,0.0175559,0.11928379,0,0.004234032705426216,0.14770497381687164,-2.5878753662109375,-0.006628330331295729,0.18220354616641998,0.0019602624233812094,-0.019454216584563255,0.10014985501766205,0.014155636541545391
0.1,0.0175559,0.11928379,0,0.0039029663894325495,0.14930662512779236,-2.5878753662109375,-0.0070088827051222324,0.18310336768627167,0.0019473062129691243,-0.021822212263941765,0.09546340256929398,8.288770186481997e-05
0.1,0.0175559,0.11928379,0,0.0035749459639191628,0.1509130746126175,-2.5878753662109375,-0.007298614364117384,0.1839829832315445,0.0019873895216733217,-0.011164254508912563,0.09333446621894836,0.006664543878287077
0.1,0.0175559,0.11928379,0,0.0032499907538294792,0.15252436697483063,-2.587860107421875,-0.0076748076826334,0.1848376840353012,0.002093639923259616,-0.022647343575954437,0.09060736000537872,0.014888587407767773
0.1,0.0175559,0.11928379,0,0.0025678237434476614,0.15577955543994904,-2.587860107421875,-0.008383013308048248,0.18642263114452362,0.002157163107767701,-0.020291127264499664,0.08053034543991089,0.009987968020141125
0.1,0.0175559,0.11928379,0,0.002211116487160325,0.15742267668247223,-2.587860107421875,-0.008745638653635979,0.1871635764837265,0.0021958600264042616,-0.0187432449311018,0.07549012452363968,0.006950459908694029
0.1,0.0175559,0.11928379,0,0.0018577228765934706,0.15906912088394165,-2.5878753662109375,-0.009051540866494179,0.18786220252513885,0.002200865186750889,-0.012353482656180859,0.07060325145721436,0.0026789491530507803
0.1,0.0175559,0.11928379,0,0.0015075852861627936,0.16071848571300507,-2.5878753662109375,-0.009408941492438316,0.18850523233413696,0.0021759229712188244,-0.01947118155658245,0.06404684484004974,-0.0009764916612766683
0.1,0.0175559,0.11928379,0,0.0011608470231294632,0.1623692661523819,-2.587890625,-0.009756846353411674,0.1892000138759613,0.0022057017777115107,-0.019123051315546036,0.07129281759262085,0.005806795787066221
0.1,0.0175559,0.11928379,0,0.00037815613904967904,0.1657114326953888,-2.5879364013671875,-0.010501141659915447,0.19045469164848328,0.002329709706827998,-0.018483944237232208,0.061077605932950974,0.007729976903647184
0.1,0.0175559,0.11928379,0,-7.865432962717023e-06,0.1673857569694519,-2.58795166015625,-0.0108284717425704,0.19098320603370667,0.0023776106536388397,-0.013009683229029179,0.05016419664025307,0.00876746978610754
0.1,0.0175559,0.11928379,0,-0.00039020751137286425,0.16906169056892395,-2.5879669189453125,-0.011145664379000664,0.191508486866951,0.0023680401500314474,-0.012459725141525269,0.05014754831790924,0.0015045515028759837
0.1,0.0175559,0.11928379,0,-0.0012496142880991101,0.17246206104755402,-2.588043212890625,-0.011850864626467228,0.1924809217453003,0.0024491525255143642,-0.012855904176831245,0.03997942805290222,0.009950715117156506
0.1,0.0175559,0.11928379,0,-0.0016730779316276312,0.17416328191757202,-2.5880889892578125,-0.01219109259545803,0.19289851188659668,0.002464711433276534,-0.011197606101632118,0.03569119796156883,0.006072222720831633
0.1,0.0175559,0.11928379,0,-0.002091143047437072,0.1758638173341751,-2.588134765625,-0.012545154429972172,0.19332198798656464,0.0024855504743754864,-0.01428491622209549,0.03714999929070473,0.006617512088268995
0.1,0.0175559,0.11928379,0,-0.0025464072823524475,0.17757557332515717,-2.58819580078125,-0.0128563167527318,0.19369687139987946,0.002501496346667409,-0.004799106623977423,0.03044363111257553,0.006768386345356703
0.2,0.026352255,0.17637871,0,-0.0034432720858603716,0.18099841475486755,-2.5883026123046875,-0.013535927049815655,0.1943425089120865,0.0024872589856386185,-0.006837902590632439,0.02351205423474312,0.00674836291000247
0.2,0.026352255,0.17637871,0,-0.0038851043209433556,0.18270906805992126,-2.588348388671875,-0.013864507898688316,0.19459983706474304,0.002511922735720873,-0.009530008770525455,0.016959434375166893,0.007460359018296003
0.2,0.026352255,0.17637871,0,-0.004360871389508247,0.18442969024181366,-2.588409423828125,-0.014182688668370247,0.19487522542476654,0.0025905994698405266,-0.004598927218466997,0.018701324239373207,0.01444201823323965
0.2,0.026352255,0.17637871,0,-0.004831328522413969,0.18614934384822845,-2.588470458984375,-0.014430858194828033,0.1950937658548355,0.0026163652073591948,0.0032510445453226566,0.012002665549516678,0.007966066710650921
0.2,0.026352255,0.17637871,0,-0.005757194943726063,0.18958404660224915,-2.588592529296875,-0.01497185230255127,0.19541038572788239,0.002718288218602538,0.004156763199716806,0.004964971449226141,0.012544914148747921
0.2,0.026352255,0.17637871,0,-0.006253798957914114,0.19130496680736542,-2.588653564453125,-0.015262290835380554,0.1955205798149109,0.0027060743886977434,7.367043144768104e-05,-0.000674477603752166,0.00320840603671968
0.2,0.026352255,0.17637871,0,-0.00674492958933115,0.19302377104759216,-2.588714599609375,-0.015530911274254322,0.19564686715602875,0.0027374648489058018,0.0018697549821808934,0.0017166802426800132,0.008523463271558285
0.2,0.026352255,0.17637871,0,-0.007230464369058609,0.19474054872989655,-2.588775634765625,-0.015754185616970062,0.1957259178161621,0.0027482302393764257,0.006630849093198776,-0.0038198346737772226,0.005813780706375837
0.2,0.026352255,0.17637871,0,-0.007710526697337627,0.1964549571275711,-2.5888214111328125,-0.0160110741853714,0.1957823485136032,0.0026711062528192997,0.001545172301121056,-0.006288877222687006,-0.005300156306475401
0.2,0.026352255,0.17637871,0,-0.008242026902735233,0.1981699913740158,-2.588897705078125,-0.016270756721496582,0.19585752487182617,0.0023469470907002687,0.007398796733468771,-0.0034758062101900578,-0.03550247848033905
0.2,0.026352255,0.17637871,0,-0.009286010637879372,0.20159322023391724,-2.58905029296875,-0.016674285754561424,0.19599874317646027,0.0017775548622012138,0.01733744516968727,-0.0019865308422595263,-0.024963168427348137
0.2,0.026352255,0.17637871,0,-0.009798339568078518,0.20330190658569336,-2.5891265869140625,-0.016884375363588333,0.19614453613758087,0.0015123642515391111,0.010610104538500309,0.006367325782775879,-0.028531530871987343
0.2,0.026352255,0.17637871,0,-0.01090456172823906,0.20671823620796204,-2.58929443359375,-0.01734902895987034,0.19638092815876007,0.0009720900561660528,0.012509244494140148,0.011557608842849731,-0.025758983567357063
0.2,0.026352255,0.17637871,0,-0.011445923708379269,0.20842421054840088,-2.589385986328125,-0.017485350370407104,0.1966145634651184,0.000729269115254283,0.022410016506910324,0.01870039477944374,-0.025242099538445473
0.2,0.026352255,0.17637871,0,-0.011980308219790459,0.21012969315052032,-2.5894775390625,-0.017649231478571892,0.19692134857177734,0.0005603376775979996,0.017952993512153625,0.028137875720858574,-0.016152391210198402
0.2,0.026352255,0.17637871,0,-0.012549533508718014,0.21182310581207275,-2.589569091796875,-0.01776018925011158,0.19734032452106476,0.00044393574353307486,0.028931764885783195,0.044792741537094116,-0.008723231963813305
0.2,0.026352255,0.17637871,0,-0.013665098696947098,0.21521331369876862,-2.5897674560546875,-0.017990920692682266,0.1982807219028473,0.0004326743073761463,0.03201691806316376,0.05840151757001877,0.010202637873589993
0.2,0.026352255,0.17637871,0,-0.014211131259799004,0.2169112116098404,-2.5898590087890625,-0.018046321347355843,0.19885863363742828,0.0005820145015604794,0.03265751153230667,0.0653235986828804,0.02400670014321804
0.2,0.026352255,0.17637871,0,-0.014749458990991116,0.21861174702644348,-2.5899505615234375,-0.018094288185238838,0.1995091736316681,0.0006879405700601637,0.03256908431649208,0.07462245225906372,0.0184266809374094
0.2,0.026352255,0.17637871,0,-0.01530422456562519,0.22030779719352722,-2.5900421142578125,-0.018067507073283195,0.20014286041259766,0.0008003452094271779,0.04430806636810303,0.07431098818778992,0.01914193667471409
0.2,0.026352255,0.17637871,0,-0.016381796449422836,0.22371149063110352,-2.5902099609375,-0.01798301190137863,0.20176845788955688,0.0011626299237832427,0.04162892326712608,0.10069138556718826,0.029785556718707085
0.2,0.026352255,0.17637871,0,-0.016908127814531326,0.22542040050029755,-2.5902862548828125,-0.01793382316827774,0.20265014469623566,0.0013038389151915908,0.04307378828525543,0.10580386966466904,0.02226000465452671
0.2,0.026352255,0.17637871,0,-0.017443012446165085,0.22712473571300507,-2.590362548828125,-0.017841888591647148,0.20352119207382202,0.0014613517560064793,0.050434838980436325,0.10685291886329651,0.023928003385663033
0.2,0.026352255,0.17637871,0,-0.017969319596886635,0.22883448004722595,-2.590423583984375,-0.017762361094355583,0.2044813185930252,0.0016468033427372575,0.04788161814212799,0.11808827519416809,0.02729845978319645
0.2,0.026352255,0.17637871,0,-0.018996259197592735,0.23227210342884064,-2.590545654296875,-0.017543867230415344,0.20649948716163635,0.002022508764639497,0.049277693033218384,0.12816084921360016,0.026761552318930626
0.2,0.026352255,0.17637871,0,-0.0195147767663002,0.2340034693479538,-2.5905914306640625,-0.01749422401189804,0.20757871866226196,0.002212867606431246,0.04400596395134926,0.1339448094367981,0.026590654626488686
0.2,0.026352255,0.17637871,0,-0.020022138953208923,0.23574191331863403,-2.5906219482421875,-0.017328811809420586,0.20864970982074738,0.0024036187678575516,0.05670738220214844,0.133005291223526,0.02655898965895176
0.2,0.026352255,0.17637871,0,-0.020520860329270363,0.2374868243932724,-2.5906524658203125,-0.01720835268497467,0.20969119668006897,0.0025896041188389063,0.05016148462891579,0.12947671115398407,0.025715677067637444
0.2,0.026352255,0.17637871,0,-0.021532347425818443,0.24098719656467438,-2.5906829833984375,-0.01683722250163555,0.2118379771709442,0.0028998383786529303,0.06194375082850456,0.12864911556243896,0.02577993832528591
0.2,0.026352255,0.17637871,0,-0.02204408496618271,0.24274271726608276,-2.5906982421875,-0.016634026542305946,0.212969109416008,0.0031025900971144438,0.062342386692762375,0.1429295688867569,0.02691522054374218
0.2,0.026352255,0.17637871,0,-0.0225461907684803,0.24450555443763733,-2.5906982421875,-0.01638711243867874,0.21407507359981537,0.00326336151920259,0.06684210896492004,0.1399039924144745,0.02162344567477703
0.2,0.026352255,0.17637871,0,-0.023038789629936218,0.24627549946308136,-2.5907135009765625,-0.016168849542737007,0.21516062319278717,0.003496428020298481,0.062311138957738876,0.1374756544828415,0.030617227777838707
0.2,0.026352255,0.17637871,0,-0.02406400628387928,0.24982957541942596,-2.5906982421875,-0.015667611733078957,0.2173134982585907,0.0037358275149017572,0.07117249816656113,0.13425913453102112,0.013021285645663738
0.2,0.026352255,0.17637871,0,-0.024561380967497826,0.2516167461872101,-2.5906829833984375,-0.015384913422167301,0.21835756301879883,0.0038537594955414534,0.07079056650400162,0.13360027968883514,0.01526391040533781
0.2,0.026352255,0.17637871,0,-0.025048494338989258,0.25341081619262695,-2.590667724609375,-0.015061120502650738,0.21941454708576202,0.004020769149065018,0.07498227804899216,0.13528427481651306,0.02138502709567547
0.2,0.026352255,0.17637871,0,-0.02555883675813675,0.25520139932632446,-2.59063720703125,-0.014777726493775845,0.22040578722953796,0.004225009121000767,0.07216925919055939,0.12862420082092285,0.0254423338919878
0.2,0.026352255,0.17637871,0,-0.02654772438108921,0.2588014602661133,-2.5905914306640625,-0.01416866946965456,0.22223171591758728,0.004485922399908304,0.07445988804101944,0.11625465005636215,0.01398473884910345
0.2,0.026352255,0.17637871,0,-0.027026377618312836,0.2606104910373688,-2.5905609130859375,-0.013852079398930073,0.22312282025814056,0.004633316304534674,0.07341961562633514,0.1161358430981636,0.018349381163716316
0.2,0.026352255,0.17637871,0,-0.027511777356266975,0.26242539286613464,-2.5905303955078125,-0.013500894419848919,0.2240462303161621,0.004666977096349001,0.07839559763669968,0.12024236470460892,0.003645661985501647
0.2,0.026352255,0.17637871,0,-0.027986666187644005,0.2642463445663452,-2.5905303955078125,-0.013223724439740181,0.22491852939128876,0.004769903142005205,0.06819871068000793,0.113843634724617,0.01288717519491911
0.2,0.026352255,0.17637871,0,-0.02845088206231594,0.2660728693008423,-2.59051513671875,-0.012826201505959034,0.2257433831691742,0.004906659014523029,0.08232078701257706,0.10789752751588821,0.017117241397500038
0.2,0.026352255,0.17637871,0,-0.029374588280916214,0.2697393298149109,-2.590484619140625,-0.011950558982789516,0.22726848721504211,0.005173081997781992,0.09174226224422455,0.10022713243961334,0.012420116923749447
0.2,0.026352255,0.17637871,0,-0.029830968007445335,0.2715793251991272,-2.5904693603515625,-0.011479795910418034,0.2279902547597885,0.005297520663589239,0.09109829366207123,0.09518208354711533,0.015269032679498196
0.2,0.026352255,0.17637871,0,-0.03027595393359661,0.2734241187572479,-2.5904541015625,-0.011074288748204708,0.2287350594997406,0.005463053472340107,0.08204992115497589,0.09801359474658966,0.020415985956788063
0.2,0.026352255,0.17637871,0,-0.03070981428027153,0.2752736508846283,-2.5904388427734375,-0.01063153799623251,0.2294166088104248,0.005554577335715294,0.0858369991183281,0.09005262702703476,0.011174472980201244
0.2,0.026352255,0.17637871,0,-0.031132269650697708,0.277127206325531,-2.590423583984375,-0.010126692242920399,0.22998090088367462,0.005624972749501467,0.09274619072675705,0.0753449946641922,0.00854302104562521
0.2,0.026352255,0.17637871,0,-0.03201637417078018,0.28085678815841675,-2.59039306640625,-0.009164678864181042,0.2311018705368042,0.0057868026196956635,0.09185744822025299,0.07629352062940598,0.012212431989610195
0.2,0.026352255,0.17637871,0,-0.03244064375758171,0.2827267348766327,-2.5903778076171875,-0.008723482489585876,0.23163577914237976,0.005836721044033766,0.08523400872945786,0.07057946175336838,0.006321817170828581
0.2,0.026352255,0.17637871,0,-0.03329380601644516,0.2864757776260376,-2.5903472900390625,-0.007740210276097059,0.23259080946445465,0.00584972370415926,0.09478718042373657,0.06044159457087517,-0.002013053512200713
0.30000000000000004,0.03517067,0.23342064,0,-0.03371938318014145,0.28835463523864746,-2.5903472900390625,-0.007303719408810139,0.23299936950206757,0.005841726437211037,0.08501610904932022,0.05454692989587784,-1.3969837709737476e-05
0.30000000000000004,0.03517067,0.23342064,0,-0.03413313627243042,0.2902355194091797,-2.5903472900390625,-0.006841381546109915,0.2333316206932068,0.005857426673173904,0.08739503473043442,0.044952861964702606,0.0029210930224508047
0.30000000000000004,0.03517067,0.23342064,0,-0.03453495725989342,0.29211804270744324,-2.59033203125,-0.006349193397909403,0.23362590372562408,0.005880188662558794,0.09029263257980347,0.0401514507830143,0.0035231930669397116
0.30000000000000004,0.03517067,0.23342064,0,-0.03539316728711128,0.2958929240703583,-2.59033203125,-0.005418024957180023,0.23419280350208282,0.005882672034204006,0.0888647735118866,0.040735818445682526,-0.0005005858256481588
0.30000000000000004,0.03517067,0.23342064,0,-0.03580344095826149,0.2977823317050934,-2.59033203125,-0.004910463001579046,0.23443076014518738,0.005876727867871523,0.09294652193784714,0.03281260281801224,0.0004833563871216029
0.30000000000000004,0.03517067,0.23342064,0,-0.03620326519012451,0.2996726930141449,-2.59033203125,-0.004393565468490124,0.23460350930690765,0.005847782827913761,0.09384718537330627,0.024535488337278366,-0.002426095074042678
0.30000000000000004,0.03517067,0.23342064,0,-0.036645952612161636,0.3015649616718292,-2.5903472900390625,-0.003918023779988289,0.23478157818317413,0.005831700284034014,0.09230197966098785,0.02512027509510517,-0.0006081535830162466
0.30000000000000004,0.03517067,0.23342064,0,-0.037491194903850555,0.3053509593009949,-2.590362548828125,-0.002919302089139819,0.23501254618167877,0.005804849788546562,0.0934760794043541,0.008288421668112278,0.0011827795533463359
0.30000000000000004,0.03517067,0.23342064,0,-0.0378938727080822,0.3072439432144165,-2.590362548828125,-0.002353494055569172,0.2351420521736145,0.005592267960309982,0.10090392827987671,0.018841633573174477,-0.02540554665029049
0.30000000000000004,0.03517067,0.23342064,0,-0.03833211958408356,0.30913665890693665,-2.5903778076171875,-0.0018528475193306804,0.2352619171142578,0.005117382388561964,0.09589291363954544,0.01765339821577072,-0.05796365067362785
0.30000000000000004,0.03517067,0.23342064,0,-0.03875645622611046,0.31102973222732544,-2.59039306640625,-0.001299778581596911,0.23539960384368896,0.004691259004175663,0.10151588916778564,0.019809376448392868,-0.051907725632190704
0.30000000000000004,0.03517067,0.23342064,0,-0.03956275060772896,0.31481701135635376,-2.590423583984375,-0.0001696209073998034,0.23564384877681732,0.004042674787342548,0.10102539509534836,0.017860420048236847,-0.03914814069867134
0.30000000000000004,0.03517067,0.23342064,0,-0.03999635949730873,0.31671783328056335,-2.5904541015625,0.000371822010492906,0.23582549393177032,0.0037182020023465157,0.10222318023443222,0.024497225880622864,-0.039396803826093674
0.30000000000000004,0.03517067,0.23342064,0,-0.040415313094854355,0.3186197280883789,-2.590484619140625,0.0009636510512791574,0.23608121275901794,0.003449940588325262,0.10756194591522217,0.03369812294840813,-0.03240303695201874
0.30000000000000004,0.03517067,0.23342064,0,-0.0408196747303009,0.32052332162857056,-2.5904998779296875,0.0015291149029508233,0.23641856014728546,0.0031919004395604134,0.10333293676376343,0.04384492337703705,-0.03125099092721939
0.30000000000000004,0.03517067,0.23342064,0,-0.04164514318108559,0.32432836294174194,-2.5905609130859375,0.0025947054382413626,0.2371554970741272,0.002950004767626524,0.10129886120557785,0.0506998747587204,-0.01044012513011694
0.30000000000000004,0.03517067,0.23342064,0,-0.0420658104121685,0.32623058557510376,-2.5905914306640625,0.003108932636678219,0.2376214861869812,0.0028628238942474127,0.09984630346298218,0.06097712740302086,-0.009770038537681103
0.30000000000000004,0.03517067,0.23342064,0,-0.04247196763753891,0.32813650369644165,-2.5906219482421875,0.0036247149109840393,0.2381668984889984,0.0028643456753343344,0.09905560314655304,0.07081899791955948,0.001286156359128654
0.30000000000000004,0.03517067,0.23342064,0,-0.042863525450229645,0.3300466239452362,-2.59063720703125,0.004229377023875713,0.2387605905532837,0.002901269355788827,0.10920737683773041,0.0767650455236435,0.005680601578205824
0.30000000000000004,0.03517067,0.23342064,0,-0.04329666122794151,0.3319571614265442,-2.590667724609375,0.00480873417109251,0.23937910795211792,0.0029520858079195023,0.11078362166881561,0.08013974875211716,0.006653368007391691
0.30000000000000004,0.03517067,0.23342064,0,-0.0437144860625267,0.33387380838394165,-2.5906829833984375,0.0054450202733278275,0.24010016024112701,0.0029712070245295763,0.11690697818994522,0.09265831112861633,0.0026817431207746267
0.30000000000000004,0.03517067,0.23342064,0,-0.04450436308979988,0.3377241790294647,-2.5906982421875,0.00656344648450613,0.2416611611843109,0.0031791534274816513,0.1065894365310669,0.10496709495782852,0.015005468390882015
0.30000000000000004,0.03517067,0.23342064,0,-0.04487701877951622,0.33965903520584106,-2.5906982421875,0.007148100528866053,0.24257034063339233,0.0033345643896609545,0.10744418203830719,0.11592964082956314,0.019531695172190666
0.30000000000000004,0.03517067,0.23342064,0,-0.04568710923194885,0.34356969594955444,-2.5906829833984375,0.00831182487308979,0.24450324475765228,0.003609736915677786,0.11192329972982407,0.12015868723392487,0.01367600541561842
0.30000000000000004,0.03517067,0.23342064,0,-0.046068839728832245,0.3455362617969513,-2.590667724609375,0.008925212547183037,0.24555565416812897,0.003704663598909974,0.11322086304426193,0.13250601291656494,0.011250375770032406
0.30000000000000004,0.03517067,0.23342064,0,-0.0464351549744606,0.3475109934806824,-2.590667724609375,0.00951876025646925,0.24663624167442322,0.0038845401722937822,0.1097375750541687,0.13602657616138458,0.021887941285967827
0.30000000000000004,0.03517067,0.23342064,0,-0.046830009669065475,0.3495142161846161,-2.5906524658203125,0.010045862756669521,0.24771614372730255,0.004094802774488926,0.10448166728019714,0.13365109264850616,0.025373416021466255
0.30000000000000004,0.03517067,0.23342064,0,-0.04757513478398323,0.353547602891922,-2.5906219482421875,0.011158043518662453,0.2500303387641907,0.004343915265053511,0.10661839693784714,0.14500147104263306,0.016629228368401527
0.30000000000000004,0.03517067,0.23342064,0,-0.047924961894750595,0.3555770218372345,-2.590606689453125,0.011741110123693943,0.2511925995349884,0.004461498931050301,0.10850991308689117,0.14400680363178253,0.013866460882127285
0.30000000000000004,0.03517067,0.23342064,0,-0.048281148076057434,0.35763439536094666,-2.5905914306640625,0.012281270697712898,0.2524011731147766,0.00463302293792367,0.10395018011331558,0.1476980447769165,0.020010394975543022
0.30000000000000004,0.03517067,0.23342064,0,-0.04862227290868759,0.35970038175582886,-2.590576171875,0.012851699255406857,0.25362926721572876,0.0047632125206291676,0.10674115270376205,0.15031740069389343,0.014886259101331234
0.30000000000000004,0.03517067,0.23342064,0,-0.04925989732146263,0.3638572692871094,-2.5905303955078125,0.014054052531719208,0.25598105788230896,0.005011995788663626,0.1103910282254219,0.14893610775470734,0.011921393685042858
0.30000000000000004,0.03517067,0.23342064,0,-0.0495794415473938,0.3659665584564209,-2.59051513671875,0.014649057760834694,0.25718772411346436,0.005114144179970026,0.10851388424634933,0.14635984599590302,0.010876915417611599
0.30000000000000004,0.03517067,0.23342064,0,-0.049886554479599,0.36808449029922485,-2.5904998779296875,0.015207896009087563,0.2583622336387634,0.005220208317041397,0.1035892441868782,0.14229795336723328,0.011421739123761654
0.30000000000000004,0.03517067,0.23342064,0,-0.05017893388867378,0.3702104091644287,-2.590484619140625,0.01583029143512249,0.25950926542282104,0.005313284695148468,0.11060954630374908,0.13905930519104004,0.00985292624682188
0.30000000000000004,0.03517067,0.23342064,0,-0.050744473934173584,0.3745049238204956,-2.5904388427734375,0.017097586765885353,0.2618153691291809,0.005468592047691345,0.10899291932582855,0.14063310623168945,0.011540948413312435
0.30000000000000004,0.03517067,0.23342064,0,-0.05101791396737099,0.37667346000671387,-2.5904083251953125,0.017666712403297424,0.2629458010196686,0.005491913761943579,0.10329671204090118,0.13534362614154816,0.0005280598415993154
0.30000000000000004,0.03517067,0.23342064,0,-0.05127706751227379,0.378849059343338,-2.5903778076171875,0.018249882385134697,0.26400551199913025,0.005551889538764954,0.10416894406080246,0.12672606110572815,0.005180481355637312
0.30000000000000004,0.03517067,0.23342064,0,-0.05152176320552826,0.38103145360946655,-2.59033203125,0.0188961960375309,0.26505330204963684,0.0055691394954919815,0.11120245605707169,0.12544237077236176,-0.00061979511519894
0.30000000000000004,0.03517067,0.23342064,0,-0.051988765597343445,0.38543838262557983,-2.5902557373046875,0.020176082849502563,0.26703760027885437,0.005680555943399668,0.11051560193300247,0.1134759932756424,0.006346031557768583
0.4,0.044018473,0.29039314,0,-0.05220399424433708,0.38765087723731995,-2.5902099609375,0.020824594423174858,0.26793956756591797,0.0057466765865683556,0.11001873016357422,0.10644255578517914,0.005551147740334272
0.4,0.044018473,0.29039314,0,-0.0524049811065197,0.3898690640926361,-2.5901641845703125,0.021457739174365997,0.26888683438301086,0.005846031475812197,0.10730525106191635,0.11230528354644775,0.009785405360162258
0.4,0.044018473,0.29039314,0,-0.05259598791599274,0.3921060562133789,-2.590118408203125,0.022142408415675163,0.26976698637008667,0.005899379029870033,0.11202182620763779,0.10261012613773346,0.0036736016627401114
0.4,0.044018473,0.29039314,0,-0.05293494090437889,0.3965945243835449,-2.59002685546875,0.023515280336141586,0.2713727056980133,0.005955750588327646,0.1114412397146225,0.09185442328453064,-0.0031981614883989096
0.4,0.044018473,0.29039314,0,-0.053083378821611404,0.3988456428050995,-2.5899810791015625,0.024192025884985924,0.2721743881702423,0.005984652787446976,0.10892056673765182,0.09343300759792328,0.0008475034846924245
0.4,0.044018473,0.29039314,0,-0.05322622135281563,0.40111851692199707,-2.589935302734375,0.024856144562363625,0.27294450998306274,0.006005996372550726,0.10646983981132507,0.0876975804567337,-0.00038789582322351635
0.4,0.044018473,0.29039314,0,-0.05335523188114166,0.4033951163291931,-2.58990478515625,0.025540407747030258,0.2736230492591858,0.006038596387952566,0.10834470391273499,0.07648272067308426,0.0011087394086644053
0.4,0.044018473,0.29039314,0,-0.0535757839679718,0.4079589247703552,-2.589813232421875,0.02694127708673477,0.27497780323028564,0.005493680946528912,0.10975348949432373,0.07611586898565292,-0.047699544578790665
0.4,0.044018473,0.29039314,0,-0.05366754159331322,0.41024646162986755,-2.5897674560546875,0.027641169726848602,0.2757153809070587,0.005038942210376263,0.10934935510158539,0.08420000970363617,-0.0595548152923584
0.4,0.044018473,0.29039314,0,-0.05374696105718613,0.4125608801841736,-2.5897369384765625,0.028334040194749832,0.2763921022415161,0.004697890020906925,0.10734783858060837,0.07408727705478668,-0.0455537773668766
0.4,0.044018473,0.29039314,0,-0.053813181817531586,0.41487839818000793,-2.589691162109375,0.02902287244796753,0.2770569920539856,0.004269399680197239,0.10627605766057968,0.07285802811384201,-0.05659646913409233
0.4,0.044018473,0.29039314,0,-0.053906142711639404,0.41952377557754517,-2.589630126953125,0.030462775379419327,0.27855390310287476,0.003532325616106391,0.1091073527932167,0.08775152266025543,-0.05004414916038513
0.4,0.044018473,0.29039314,0,-0.0539197139441967,0.42185646295547485,-2.589599609375,0.031221341341733932,0.27928978204727173,0.003220213344320655,0.1111358255147934,0.08203534036874771,-0.04166271165013313
0.4,0.044018473,0.29039314,0,-0.05392022803425789,0.4241931140422821,-2.5895843505859375,0.03199540451169014,0.28010398149490356,0.002905837493017316,0.11261947453022003,0.09205098450183868,-0.041868068277835846
0.4,0.044018473,0.29039314,0,-0.05390799418091774,0.42653438448905945,-2.589569091796875,0.03275681659579277,0.28096362948417664,0.0027341002132743597,0.1105937585234642,0.09795142710208893,-0.023962927982211113
0.4,0.044018473,0.29039314,0,-0.05388595908880234,0.42888113856315613,-2.5895538330078125,0.03352311998605728,0.2818510830402374,0.002546961884945631,0.11146797239780426,0.1013314351439476,-0.025814862921833992
0.4,0.044018473,0.29039314,0,-0.053792212158441544,0.4335922598838806,-2.58953857421875,0.03515127673745155,0.2837395966053009,0.002509197685867548,0.11215892434120178,0.11601337790489197,0.0053616235964000225
0.4,0.044018473,0.29039314,0,-0.05372630059719086,0.43595707416534424,-2.58953857421875,0.035981129854917526,0.28483736515045166,0.0025028905365616083,0.11639443784952164,0.12832224369049072,-0.0027352941688150167
0.4,0.044018473,0.29039314,0,-0.05364800617098808,0.4383288323879242,-2.5895538330078125,0.036724239587783813,0.28595948219299316,0.0024822442792356014,0.10518716275691986,0.1315443217754364,-0.00447034789249301
0.4,0.044018473,0.29039314,0,-0.05343577265739441,0.4431079924106598,-2.5895538330078125,0.03838635981082916,0.28825366497039795,0.0025667683221399784,0.11916540563106537,0.1396315097808838,-0.0013783572940155864
0.4,0.044018473,0.29039314,0,-0.053310904651880264,0.4455088675022125,-2.5895538330078125,0.03926992788910866,0.2894745469093323,0.0026271487586200237,0.11957898736000061,0.14387814700603485,0.005410518031567335
0.4,0.044018473,0.29039314,0,-0.053175464272499084,0.44791874289512634,-2.5895538330078125,0.04009582847356796,0.29078999161720276,0.0026955523062497377,0.11248951405286789,0.1556045114994049,0.006475485395640135
0.4,0.044018473,0.29039314,0,-0.0530257374048233,0.45033836364746094,-2.589569091796875,0.040885258466005325,0.2920632064342499,0.0026935297064483166,0.10582441836595535,0.15074677765369415,-0.0017676501302048564
0.4,0.044018473,0.29039314,0,-0.05286445468664169,0.45276638865470886,-2.5895843505859375,0.04166145622730255,0.29333728551864624,0.002743495162576437,0.10394170880317688,0.151030495762825,0.0047758216969668865
0.4,0.044018473,0.29039314,0,-0.052508216351270676,0.45764848589897156,-2.589599609375,0.04320540279150009,0.29600790143013,0.003007530700415373,0.105406254529953,0.15684780478477478,0.014537478797137737
0.4,0.044018473,0.29039314,0,-0.052310530096292496,0.4601139426231384,-2.5896148681640625,0.04404720664024353,0.2973329424858093,0.0030559683218598366,0.1097620278596878,0.15670645236968994,0.004964880179613829
0.4,0.044018473,0.29039314,0,-0.052101317793130875,0.4625879228115082,-2.589630126953125,0.04484012350440025,0.2986461818218231,0.0031408309005200863,0.10349302738904953,0.1554875373840332,0.009551177732646465
0.4,0.044018473,0.29039314,0,-0.05164945870637894,0.46756237745285034,-2.58966064453125,0.04644789546728134,0.30139803886413574,0.003220098093152046,0.1034906879067421,0.16815237700939178,0.007321126293390989
0.4,0.044018473,0.29039314,0,-0.05141013488173485,0.4700876772403717,-2.5897064208984375,0.047230567783117294,0.30272987484931946,0.00331377936527133,0.10099785029888153,0.15531474351882935,0.010920687578618526
0.4,0.044018473,0.29039314,0,-0.05115994065999985,0.47262126207351685,-2.5897369384765625,0.04799408093094826,0.30406680703163147,0.0034230672754347324,0.09847740083932877,0.15627790987491608,0.012896022759377956
0.4,0.044018473,0.29039314,0,-0.050899192690849304,0.4751632511615753,-2.5897674560546875,0.04873916134238243,0.30540814995765686,0.0034611790906637907,0.09604976326227188,0.15714570879936218,0.004022847395390272
0.4,0.044018473,0.29039314,0,-0.05035049095749855,0.48029056191444397,-2.589813232421875,0.050172384828329086,0.30804383754730225,0.0036616104189306498,0.08948827534914017,0.15016987919807434,0.012099276296794415
0.4,0.044018473,0.29039314,0,-0.05006294324994087,0.482875257730484,-2.58984375,0.05085724592208862,0.3093523681163788,0.003733659628778696,0.08741741627454758,0.15177880227565765,0.008283182047307491
0.4,0.044018473,0.29039314,0,-0.04976570978760719,0.4854678511619568,-2.5898590087890625,0.0515439435839653,0.31064674258232117,0.0037821130827069283,0.08755043894052505,0.15033742785453796,0.00535603566095233
0.4,0.044018473,0.29039314,0,-0.04945880547165871,0.48806801438331604,-2.58990478515625,0.05221664905548096,0.3118569254875183,0.003816635115072131,0.08570440858602524,0.14013458788394928,0.0039078290574252605
0.4,0.044018473,0.29039314,0,-0.049142416566610336,0.4906752407550812,-2.589935302734375,0.05290491506457329,0.31300652027130127,0.003910563886165619,0.08755820989608765,0.13286010921001434,0.011346767656505108
0.4,0.044018473,0.29039314,0,-0.04881909489631653,0.49331018328666687,-2.5899505615234375,0.053582608699798584,0.3141935467720032,0.003992609679698944,0.08531701564788818,0.13497111201286316,0.00948412250727415
0.4,0.044018473,0.29039314,0,-0.048144932836294174,0.4985993802547455,-2.5900115966796875,0.05490953475236893,0.3164066672325134,0.004139435011893511,0.08676876127719879,0.1214255765080452,0.005183275323361158
0.4,0.044018473,0.29039314,0,-0.04779399558901787,0.5012530088424683,-2.59002685546875,0.05557490140199661,0.31746119260787964,0.004196545109152794,0.08359117060899734,0.11941128969192505,0.0064349728636443615
0.5,0.05290296,0.34727976,0,-0.047077957540750504,0.5066061615943909,-2.590057373046875,0.05684822052717209,0.3193967938423157,0.004342895466834307,0.0754423663020134,0.10574965178966522,0.010233371518552303
0.5,0.05290296,0.34727976,0,-0.04670676961541176,0.5092900991439819,-2.5900726318359375,0.05748574435710907,0.3203352689743042,0.004427862353622913,0.07900496572256088,0.10418082773685455,0.00975001510232687
0.5,0.05290296,0.34727976,0,-0.04632680490612984,0.5119786262512207,-2.5900726318359375,0.05810244381427765,0.32120591402053833,0.004476433154195547,0.07637135684490204,0.09600591659545898,0.00522611616179347
0.5,0.05290296,0.34727976,0,-0.04595721885561943,0.5146905183792114,-2.590087890625,0.05869002640247345,0.322065532207489,0.004526439588516951,0.07327105849981308,0.09277596324682236,0.005140434484928846
0.5,0.05290296,0.34727976,0,-0.04520018771290779,0.5201254487037659,-2.590087890625,0.059743043035268784,0.32361939549446106,0.0046273209154605865,0.06456314772367477,0.07818519324064255,0.0029639338608831167
0.5,0.05290296,0.34727976,0,-0.04480969160795212,0.5228477120399475,-2.590087890625,0.06027292087674141,0.3243213891983032,0.004649278242141008,0.06679583340883255,0.07370420545339584,0.0017299315659329295
0.5,0.05290296,0.34727976,0,-0.04443015903234482,0.525579571723938,-2.5900726318359375,0.06079752743244171,0.32500913739204407,0.004704766906797886,0.06664244085550308,0.0714351087808609,0.004877801518887281
0.5,0.05290296,0.34727976,0,-0.04404270648956299,0.5283136963844299,-2.5900726318359375,0.06120642274618149,0.325595498085022,0.004761704709380865,0.05210890620946884,0.05908751115202904,0.005314126145094633
0.5,0.05290296,0.34727976,0,-0.0436478927731514,0.531049907207489,-2.590057373046875,0.06168027222156525,0.3262285888195038,0.004574776627123356,0.06015995144844055,0.06524298340082169,-0.02511683665215969
0.5,0.05290296,0.34727976,0,-0.042846765369176865,0.5365496873855591,-2.59002685546875,0.06268687546253204,0.3272961378097534,0.003831811249256134,0.06227932497859001,0.05270550400018692,-0.0488208569586277
0.5,0.05290296,0.34727976,0,-0.04244333505630493,0.5393127799034119,-2.589996337890625,0.06316143274307251,0.3278443217277527,0.0034866270143538713,0.060645055025815964,0.053176626563072205,-0.04560639709234238
0.5,0.05290296,0.34727976,0,-0.042032282799482346,0.5420771837234497,-2.5899810791015625,0.0636163204908371,0.32838162779808044,0.003203367115929723,0.058111898601055145,0.05215609073638916,-0.03779446333646774
0.5,0.05290296,0.34727976,0,-0.04120493307709694,0.5476332306861877,-2.589935302734375,0.06451151520013809,0.3295314610004425,0.002566833281889558,0.05937342718243599,0.0569702684879303,-0.04351930320262909
0.5,0.05290296,0.34727976,0,-0.04078845679759979,0.5504247546195984,-2.5899200439453125,0.06494083255529404,0.33013826608657837,0.002319367602467537,0.0553259551525116,0.0596090666949749,-0.03380747139453888
0.5,0.05290296,0.34727976,0,-0.04036468267440796,0.5532180070877075,-2.58990478515625,0.06534675508737564,0.3307698667049408,0.002075462369248271,0.052320659160614014,0.06306009739637375,-0.033278945833444595
0.5,0.05290296,0.34727976,0,-0.03993355855345726,0.5560134053230286,-2.5898895263671875,0.06581971794366837,0.33146217465400696,0.0019380914745852351,0.06061922013759613,0.07099784165620804,-0.01988094113767147
0.5,0.05290296,0.34727976,0,-0.03910740464925766,0.5616805553436279,-2.58984375,0.06662429869174957,0.3331373631954193,0.001798959681764245,0.050909530371427536,0.08849147707223892,-0.01048110332340002
0.5,0.05290296,0.34727976,0,-0.03868473321199417,0.5645191073417664,-2.5898284912109375,0.06696592271327972,0.33401644229888916,0.0018875666428357363,0.04645298048853874,0.0917416512966156,0.008047557435929775
0.5,0.05290296,0.34727976,0,-0.03825528919696808,0.5673614144325256,-2.5897979736328125,0.0672815665602684,0.33496391773223877,0.00197605206631124,0.04306698590517044,0.1006925106048584,0.00812066625803709
0.5,0.05290296,0.34727976,0,-0.03785361349582672,0.5702345967292786,-2.5897674560546875,0.06756484508514404,0.3359971046447754,0.0019842078909277916,0.042012397199869156,0.10871902108192444,-0.0020088625606149435
0.5,0.05290296,0.34727976,0,-0.037444818764925,0.5731120109558105,-2.5897369384765625,0.067882239818573,0.3370191752910614,0.0020099312532693148,0.046065617352724075,0.10780076682567596,0.0002756714529823512
0.5,0.05290296,0.34727976,0,-0.037028878927230835,0.5759940147399902,-2.5897064208984375,0.06823981553316116,0.338123619556427,0.0020871530286967754,0.05088016390800476,0.1185528039932251,0.006799119990319014
0.5,0.05290296,0.34727976,0,-0.03617625683546066,0.5817733407020569,-2.5896453857421875,0.06883623450994492,0.3403870761394501,0.00218864600174129,0.04321930930018425,0.12753891944885254,0.004848464857786894
0.5,0.05290296,0.34727976,0,-0.035768624395132065,0.5846872925758362,-2.589599609375,0.0691332146525383,0.3415438234806061,0.0022515365853905678,0.045446787029504776,0.12442004680633545,0.005073379259556532
0.5,0.05290296,0.34727976,0,-0.0353538952767849,0.5876064896583557,-2.589569091796875,0.06944511830806732,0.34270548820495605,0.0023378003388643265,0.04705361649394035,0.12551800906658173,0.00807735975831747
0.5,0.05290296,0.34727976,0,-0.034503668546676636,0.5934640169143677,-2.5894622802734375,0.06999644637107849,0.34520700573921204,0.0025966132525354624,0.04292970523238182,0.13165132701396942,0.014862976036965847
0.5,0.05290296,0.34727976,0,-0.034077778458595276,0.5964298248291016,-2.58941650390625,0.07029052078723907,0.34645265340805054,0.0027343330439180136,0.0443551130592823,0.13409806787967682,0.014517921023070812
0.5,0.05290296,0.34727976,0,-0.033645328134298325,0.5994012355804443,-2.58935546875,0.07051839679479599,0.3476528525352478,0.0027837895322591066,0.035848554223775864,0.12901389598846436,0.003565102582797408
0.5,0.05290296,0.34727976,0,-0.0327618308365345,0.6053608059883118,-2.5892486572265625,0.07102824747562408,0.3500054180622101,0.0030516504775732756,0.036921460181474686,0.12058580666780472,0.016434116289019585
0.6000000000000001,0.06183138,0.40406382,0,-0.032348401844501495,0.6083638072013855,-2.589202880859375,0.07121390104293823,0.3512159287929535,0.003200147533789277,0.03356780856847763,0.12980830669403076,0.016759147867560387
0.6000000000000001,0.06183138,0.40406382,0,-0.031928643584251404,0.611372172832489,-2.589141845703125,0.07140865176916122,0.3523654639720917,0.0032800764311105013,0.03440733253955841,0.12279997020959854,0.008242669515311718
0.6000000000000001,0.06183138,0.40406382,0,-0.03150279447436333,0.6143857836723328,-2.589111328125,0.07159423828125,0.35352861881256104,0.003320220857858658,0.03297152370214462,0.12510614097118378,0.0035716218408197165
0.6000000000000001,0.06183138,0.40406382,0,-0.030660461634397507,0.620444118976593,-2.58905029296875,0.07200762629508972,0.3557901680469513,0.0034883711487054825,0.03560023009777069,0.12142510712146759,0.011576804332435131
0.6000000000000001,0.06183138,0.40406382,0,-0.030243171378970146,0.6234886646270752,-2.589019775390625,0.07212681323289871,0.35690179467201233,0.003470070892944932,0.026253843680024147,0.1183687224984169,-0.0028717329259961843
0.6000000000000001,0.06183138,0.40406382,0,-0.02982017956674099,0.6265377998352051,-2.5890045166015625,0.07226057350635529,0.35794705152511597,0.0034447861835360527,0.027759067714214325,0.11066700518131256,-0.0037252900656312704
0.6000000000000001,0.06183138,0.40406382,0,-0.029391368851065636,0.6295912265777588,-2.5889739990234375,0.07244673371315002,0.3589922785758972,0.003296343609690666,0.0340065099298954,0.11124479025602341,-0.019100958481431007
0.6000000000000001,0.06183138,0.40406382,0,-0.028574416413903236,0.6357441544532776,-2.5889739990234375,0.0728268101811409,0.3610563576221466,0.002441098215058446,0.03854603320360184,0.10469251871109009,-0.06187613680958748
0.6000000000000001,0.06183138,0.40406382,0,-0.02815650776028633,0.6388266086578369,-2.5889892578125,0.07294738292694092,0.36207255721092224,0.0020661798771470785,0.027540037408471107,0.10740841925144196,-0.04609627276659012
0.6000000000000001,0.06183138,0.40406382,0,-0.027734385803341866,0.6419129371643066,-2.589019775390625,0.073111891746521,0.3630911409854889,0.001738134422339499,0.0330672524869442,0.10819543153047562,-0.04025455191731453
0.6000000000000001,0.06183138,0.40406382,0,-0.02732946164906025,0.6450203061103821,-2.58905029296875,0.07327896356582642,0.3641470968723297,0.001403521397151053,0.03486821427941322,0.11170735955238342,-0.04042917490005493
0.6000000000000001,0.06183138,0.40406382,0,-0.026501242071390152,0.6512470841407776,-2.5891265869140625,0.07353593409061432,0.36623501777648926,0.0007570622838102281,0.03193797543644905,0.11506462097167969,-0.04007154703140259
0.6000000000000001,0.06183138,0.40406382,0,-0.02607825957238674,0.6543671488761902,-2.58917236328125,0.07364016771316528,0.3673160672187805,0.000551873235963285,0.025902949273586273,0.1164870336651802,-0.024361534044146538
0.6000000000000001,0.06183138,0.40406382,0,-0.025680752471089363,0.6574932336807251,-2.5892333984375,0.07369359582662582,0.36845576763153076,0.0003567159583326429,0.021754901856184006,0.12470263242721558,-0.022537538781762123
0.6000000000000001,0.06183138,0.40406382,0,-0.025277376174926758,0.6606248021125793,-2.5892791748046875,0.07376115769147873,0.3696906268596649,0.00026365325902588665,0.023117821663618088,0.13708174228668213,-0.009899958036839962
0.6000000000000001,0.06183138,0.40406382,0,-0.02445366606116295,0.6669059991836548,-2.5893707275390625,0.07392990589141846,0.3721950352191925,0.00024160605971701443,0.02642512135207653,0.1445576697587967,0.004406552296131849
0.6000000000000001,0.06183138,0.40406382,0,-0.024067210033535957,0.6700636744499207,-2.5894317626953125,0.07401982694864273,0.3735124468803406,0.00034664192935451865,0.02767699584364891,0.14819227159023285,0.01574074663221836
0.6000000000000001,0.06183138,0.40406382,0,-0.023674586787819862,0.6732282638549805,-2.5894927978515625,0.07409708201885223,0.37489354610443115,0.00040875456761568785,0.02565428987145424,0.1566019356250763,0.010302289389073849
0.6000000000000001,0.06183138,0.40406382,0,-0.023275764659047127,0.6764001250267029,-2.5895538330078125,0.07421694695949554,0.37626612186431885,0.0004509233986027539,0.030550913885235786,0.15596316754817963,0.007738358806818724
0.6000000000000001,0.06183138,0.40406382,0,-0.022460022941231728,0.6827651858329773,-2.58966064453125,0.07437288016080856,0.3790346384048462,0.0006967353401705623,0.023064715787768364,0.1642581671476364,0.021264420822262764
0.7000000000000001,0.070810966,0.46072876,0,-0.02208365872502327,0.6859780550003052,-2.5897064208984375,0.07441288232803345,0.38042810559272766,0.0007641963893547654,0.023289237171411514,0.1577407419681549,0.011193565092980862
0.7000000000000001,0.070810966,0.46072876,0,-0.021701114252209663,0.6891982555389404,-2.589752197265625,0.07447429746389389,0.38189178705215454,0.000871985568664968,0.02547425404191017,0.1669495552778244,0.01615704782307148
0.7000000000000001,0.070810966,0.46072876,0,-0.02131255902349949,0.6924264430999756,-2.5897979736328125,0.07449356466531754,0.3833766281604767,0.0009339332464151084,0.019730757921934128,0.1700345277786255,0.010351649485528469
0.7000000000000001,0.070810966,0.46072876,0,-0.020549360662698746,0.6989240050315857,-2.5898895263671875,0.07457658648490906,0.38638442754745483,0.001145447138696909,0.020769692957401276,0.17128735780715942,0.015860887244343758
0.7000000000000001,0.070810966,0.46072876,0,-0.020174596458673477,0.7021931409835815,-2.589935302734375,0.07459314167499542,0.3878614902496338,0.0012752541806548834,0.02115136757493019,0.16887661814689636,0.019051598384976387
0.7000000000000001,0.070810966,0.46072876,0,-0.019793793559074402,0.7054699063301086,-2.5899810791015625,0.07461779564619064,0.3893046975135803,0.0013982860837131739,0.021656831726431847,0.16514316201210022,0.0181258637458086
0.7000000000000001,0.070810966,0.46072876,0,-0.019407281652092934,0.708754301071167,-2.5900421142578125,0.07461871206760406,0.39074093103408813,0.0014716017758473754,0.018198927864432335,0.16476687788963318,0.012357252649962902
0.7000000000000001,0.070810966,0.46072876,0,-0.018679313361644745,0.7153675556182861,-2.590179443359375,0.07459425926208496,0.3937099874019623,0.000987744308076799,0.018944788724184036,0.17258785665035248,-0.03958260267972946
0.7000000000000001,0.070810966,0.46072876,0,-0.018306417390704155,0.7186861634254456,-2.590240478515625,0.07460367679595947,0.3951855003833771,0.0006345924339257181,0.020802553743124008,0.16998378932476044,-0.040887851268053055
0.7000000000000001,0.070810966,0.46072876,0,-0.017927739769220352,0.7220125198364258,-2.590301513671875,0.07459820806980133,0.39666250348091125,0.0004629251779988408,0.018418798223137856,0.17064310610294342,-0.018293501809239388
0.7000000000000001,0.070810966,0.46072876,0,-0.017575664445757866,0.7253701686859131,-2.5903778076171875,0.07451620697975159,0.3982042968273163,0.0002631396637298167,0.011677499860525131,0.1768750548362732,-0.021651851013302803
0.7000000000000001,0.070810966,0.46072876,0,-0.016857696697115898,0.7321088314056396,-2.59051513671875,0.07445959746837616,0.4012925922870636,-0.0002072045608656481,0.021813763305544853,0.18033213913440704,-0.029229557141661644
0.7000000000000001,0.070810966,0.46072876,0,-0.016489950940012932,0.7354908585548401,-2.5905914306640625,0.07441826909780502,0.40290412306785583,-0.0004246164462529123,0.01537156943231821,0.18710283935070038,-0.024063045158982277
0.7000000000000001,0.070810966,0.46072876,0,-0.01614096574485302,0.7388932704925537,-2.5906829833984375,0.07441972196102142,0.40458905696868896,-0.0005989407072775066,0.022568561136722565,0.19582386314868927,-0.018120741471648216
0.7000000000000001,0.070810966,0.46072876,0,-0.015785908326506615,0.7423050403594971,-2.59075927734375,0.07438605278730392,0.40628695487976074,-0.0007165005663409829,0.0175782423466444,0.1979072540998459,-0.011128838174045086
0.7000000000000001,0.070810966,0.46072876,0,-0.015058672986924648,0.7491573691368103,-2.5909271240234375,0.0743294432759285,0.4097626507282257,-0.0006645726971328259,0.018114760518074036,0.20909631252288818,0.004402827005833387
0.7000000000000001,0.070810966,0.46072876,0,-0.01471666432917118,0.7526037096977234,-2.59100341796875,0.07430925965309143,0.41158196330070496,-0.0005733573925681412,0.020650217309594154,0.2141668051481247,0.01533189695328474
0.7000000000000001,0.070810966,0.46072876,0,-0.014370683580636978,0.7560602426528931,-2.591094970703125,0.0742824599146843,0.41342660784721375,-0.0004526626144070178,0.019701164215803146,0.21776065230369568,0.018909571692347527
0.7000000000000001,0.070810966,0.46072876,0,-0.0140188904479146,0.7595276832580566,-2.5911712646484375,0.07422205805778503,0.4153016209602356,-0.0002619982697069645,0.014884562231600285,0.22195518016815186,0.027425585314631462
0.7000000000000001,0.070810966,0.46072876,0,-0.013661577366292477,0.7630065679550171,-2.59124755859375,0.07417993247509003,0.41721585392951965,-6.632795702898875e-05,0.01656782627105713,0.22723323106765747,0.02794945426285267
0.7000000000000001,0.070810966,0.46072876,0,-0.013337742537260056,0.766511857509613,-2.5913238525390625,0.07410887628793716,0.41918396949768066,7.882736099418253e-05,0.016221551224589348,0.23263558745384216,0.02216500975191593
0.7000000000000001,0.070810966,0.46072876,0,-0.012672366574406624,0.7735576629638672,-2.591461181640625,0.07395823299884796,0.4231294095516205,0.0005113158840686083,0.016285723075270653,0.23696838319301605,0.023581551387906075
0.7000000000000001,0.070810966,0.46072876,0,-0.012330854311585426,0.7770986557006836,-2.5915374755859375,0.07391558587551117,0.42511433362960815,0.00071357237175107,0.017804602161049843,0.23588575422763824,0.02896878682076931
0.7000000000000001,0.070810966,0.46072876,0,-0.011690139770507812,0.7842362523078918,-2.5916900634765625,0.0738249197602272,0.429058313369751,0.0011905072024092078,0.021486418321728706,0.23418748378753662,0.036016568541526794
0.7000000000000001,0.070810966,0.46072876,0,-0.011362516321241856,0.7878222465515137,-2.5917816162109375,0.07378752529621124,0.4309532642364502,0.0013947641709819436,0.020163644105196,0.224691241979599,0.030544118955731392
0.7000000000000001,0.070810966,0.46072876,0,-0.011028827168047428,0.7914199233055115,-2.5918731689453125,0.07376803457736969,0.432889848947525,0.0015728697180747986,0.021742044016718864,0.23030853271484375,0.027132684364914894
0.7000000000000001,0.070810966,0.46072876,0,-0.010689065791666508,0.7950291037559509,-2.5919647216796875,0.0737198144197464,0.43476852774620056,0.0017687174258753657,0.01751234568655491,0.22348111867904663,0.029212327674031258
0.7000000000000001,0.070810966,0.46072876,0,-0.01003914326429367,0.8022695183753967,-2.592132568359375,0.07360661029815674,0.4384608864784241,0.0021795129869133234,0.021011848002672195,0.2196827530860901,0.03600073605775833
0.7000000000000001,0.070810966,0.46072876,0,-0.009705248288810253,0.8059067130088806,-2.5922088623046875,0.07349814474582672,0.4402732253074646,0.002455639885738492,0.009992547333240509,0.21702778339385986,0.039359550923109055
0.8,0.07984887,0.51725775,0,-0.009365945123136044,0.8095546960830688,-2.59228515625,0.07341384887695312,0.44196611642837524,0.0027123980689793825,0.012390981428325176,0.20245963335037231,0.036801207810640335
0.8,0.07984887,0.51725775,0,-0.009040161967277527,0.8132044076919556,-2.5923614501953125,0.07333022356033325,0.4436672329902649,0.0028943452052772045,0.013185073621571064,0.2049012929201126,0.027733387425541878
0.8,0.07984887,0.51725775,0,-0.008708418346941471,0.8168648481369019,-2.5924224853515625,0.07329782843589783,0.44537240266799927,0.0031070217955857515,0.01896042749285698,0.2057131677865982,0.03143306449055672
0.8,0.07984887,0.51725775,0,-0.00803364347666502,0.8242151737213135,-2.592559814453125,0.07323004305362701,0.4485522210597992,0.0034721100237220526,0.022143004462122917,0.1894659847021103,0.02410542033612728
0.8,0.07984887,0.51725775,0,-0.0077185784466564655,0.8278906941413879,-2.592620849609375,0.07313548773527145,0.45003288984298706,0.0036511574871838093,0.012815183028578758,0.1800791621208191,0.02735806442797184
0.8,0.07984887,0.51725775,0,-0.007397736422717571,0.8315755128860474,-2.5926971435546875,0.07302752882242203,0.45148009061813354,0.0038522868417203426,0.010486755520105362,0.1761087328195572,0.029976943507790565
0.8,0.07984887,0.51725775,0,-0.006738871335983276,0.8389713168144226,-2.5928192138671875,0.07287350296974182,0.4541718065738678,0.003882702672854066,0.014826404862105846,0.16033945977687836,-0.0035818663891404867
0.8,0.07984887,0.51725775,0,-0.0064362469129264355,0.8426814079284668,-2.5929107666015625,0.07281234115362167,0.4554605782032013,0.0035697801504284143,0.017447451129555702,0.15738257765769958,-0.0337245836853981
0.8,0.07984887,0.51725775,0,-0.006126989610493183,0.8463994860649109,-2.592987060546875,0.07278486341238022,0.45672768354415894,0.0032676467671990395,0.020988164469599724,0.15483379364013672,-0.03252969682216644
0.8,0.07984887,0.51725775,0,-0.005811457056552172,0.8501254916191101,-2.59307861328125,0.07269813120365143,0.4580232799053192,0.0030291378498077393,0.012927635572850704,0.15854878723621368,-0.024726146832108498
0.8,0.07984887,0.51725775,0,-0.005493530072271824,0.8538588881492615,-2.593170166015625,0.07263053953647614,0.4592667818069458,0.002863931702449918,0.015566226094961166,0.15223772823810577,-0.015701165422797203
0.8,0.07984887,0.51725775,0,-0.004885757341980934,0.8613763451576233,-2.5933685302734375,0.07245317846536636,0.46169742941856384,0.0024028343614190817,0.01373223401606083,0.14911021292209625,-0.022372694686055183
0.8,0.07984887,0.51725775,0,-0.004572626668959856,0.8651462197303772,-2.5934600830078125,0.07239529490470886,0.4629782438278198,0.00226382608525455,0.01660148985683918,0.15602369606494904,-0.012251547537744045
0.8,0.07984887,0.51725775,0,-0.004253372084349394,0.8689242601394653,-2.5935821533203125,0.07233792543411255,0.4643067419528961,0.0021283947862684727,0.016028564423322678,0.1621282398700714,-0.011432449333369732
0.8,0.07984887,0.51725775,0,-0.0036533859092742205,0.8765055537223816,-2.5938568115234375,0.07221249490976334,0.4668786823749542,0.0020593965891748667,0.015169903635978699,0.1617729514837265,0.008245463483035564
0.8,0.07984887,0.51725775,0,-0.003343892516568303,0.8803086280822754,-2.593994140625,0.07216018438339233,0.468235582113266,0.0021377878729254007,0.01743120327591896,0.16637934744358063,0.01626414991915226
0.8,0.07984887,0.51725775,0,-0.003031184198334813,0.8841201663017273,-2.5941314697265625,0.07208530604839325,0.46964651346206665,0.0022058894392102957,0.014723168686032295,0.17329108715057373,0.014798249118030071
0.8,0.07984887,0.51725775,0,-0.0027208724059164524,0.8879401683807373,-2.594268798828125,0.07204637676477432,0.47104912996292114,0.002294264966621995,0.019439179450273514,0.17293183505535126,0.01793447695672512
0.8,0.07984887,0.51725775,0,-0.002080837730318308,0.8956080079078674,-2.59454345703125,0.07201492786407471,0.47389185428619385,0.002590063028037548,0.017108485102653503,0.17353394627571106,0.029907559975981712
0.8,0.07984887,0.51725775,0,-0.00175161671359092,0.8994559049606323,-2.5946502685546875,0.07201247662305832,0.475350022315979,0.0028147869743406773,0.02206345647573471,0.18007513880729675,0.034141816198825836
0.9,0.08895221,0.5736341,0,-0.001445956528186798,0.9033176898956299,-2.59478759765625,0.07197093963623047,0.47680428624153137,0.0030552269890904427,0.019950220361351967,0.18008437752723694,0.0369255393743515
0.9,0.08895221,0.5736341,0,-0.001133867190219462,0.9071887731552124,-2.59490966796875,0.07194600999355316,0.47823238372802734,0.003309907391667366,0.021333614364266396,0.17685775458812714,0.038506925106048584
0.9,0.08895221,0.5736341,0,-0.0008156605763360858,0.9110693335533142,-2.59503173828125,0.07187090814113617,0.4796794354915619,0.003459803992882371,0.014386853203177452,0.1792723387479782,0.02521602250635624
0.9,0.08895221,0.5736341,0,-0.0001645116863073781,0.9188598394393921,-2.595245361328125,0.07169244438409805,0.4826699197292328,0.004000096581876278,0.014908449724316597,0.18344181776046753,0.037237998098134995
0.9,0.08895221,0.5736341,0,0.00013189984019845724,0.9227707386016846,-2.595367431640625,0.07160648703575134,0.48412424325942993,0.004240971524268389,0.015670133754611015,0.18098823726177216,0.03629410266876221
0.9,0.08895221,0.5736341,0,0.00043461431050673127,0.9266915917396545,-2.595458984375,0.0715598464012146,0.4855949580669403,0.004510495811700821,0.019857756793498993,0.18312281370162964,0.03950902819633484
0.9,0.08895221,0.5736341,0,0.0010588389122858644,0.9345624446868896,-2.59564208984375,0.07147698849439621,0.48851388692855835,0.004381457809358835,0.01708470843732357,0.18384647369384766,-0.024100298061966896
0.9,0.08895221,0.5736341,0,0.0013518889900296926,0.9385136365890503,-2.595733642578125,0.07141251116991043,0.48995035886764526,0.004177330993115902,0.018478643149137497,0.17987167835235596,-0.02002762444317341
0.9,0.08895221,0.5736341,0,0.0016515138559043407,0.9424746632575989,-2.5958404541015625,0.07139241695404053,0.49144843220710754,0.004062115680426359,0.02329723723232746,0.1876532882452011,-0.009071546606719494
0.9,0.08895221,0.5736341,0,0.0019571944139897823,0.9464457631111145,-2.5959320068359375,0.07129337638616562,0.49289020895957947,0.003986035939306021,0.012715861201286316,0.1806851476430893,-0.0043329778127372265
0.9,0.08895221,0.5736341,0,0.0022689050529152155,0.9504265189170837,-2.5960235595703125,0.0712595283985138,0.4943261742591858,0.003873511916026473,0.02017025463283062,0.18003427982330322,-0.009037553332746029
0.9,0.08895221,0.5736341,0,0.0028482337947934866,0.9584235548973083,-2.5962066650390625,0.07120894640684128,0.49742481112480164,0.0036512892693281174,0.01919231377542019,0.19915170967578888,-0.012368428520858288
0.9,0.08895221,0.5736341,0,0.003147529438138008,0.9624385833740234,-2.5963134765625,0.0711648166179657,0.49906274676322937,0.0035614471416920424,0.020955078303813934,0.20615065097808838,-0.006389803718775511
0.9,0.08895221,0.5736341,0,0.0034530777484178543,0.9664648175239563,-2.596405029296875,0.07112247496843338,0.5006784796714783,0.0036124230828136206,0.02044793590903282,0.20341497659683228,0.011072958819568157
0.9,0.08895221,0.5736341,0,0.0040273782797157764,0.9745857119560242,-2.596588134765625,0.07105295360088348,0.5041611194610596,0.0038954720366746187,0.024345746263861656,0.2215556651353836,0.026941297575831413
0.9,0.08895221,0.5736341,0,0.004324228037148714,0.978664219379425,-2.5966644287109375,0.07098947465419769,0.5059145092964172,0.004159151576459408,0.018644554540514946,0.21968625485897064,0.03724312037229538
0.9,0.08895221,0.5736341,0,0.004627334885299206,0.9827547669410706,-2.59674072265625,0.07096704840660095,0.5076717734336853,0.004400546662509441,0.023036988452076912,0.22021839022636414,0.034333668649196625
0.9,0.08895221,0.5736341,0,0.004906597547233105,0.986876368522644,-2.5968475341796875,0.07099632918834686,0.509513258934021,0.0046655843034386635,0.03233041614294052,0.2294500768184662,0.03792624548077583
0.9,0.08895221,0.5736341,0,0.00519044091925025,0.9910102486610413,-2.5969390869140625,0.07098909467458725,0.5113793611526489,0.004896709229797125,0.027628369629383087,0.2326856404542923,0.03355461731553078
0.9,0.08895221,0.5736341,0,0.005777472630143166,0.9993162751197815,-2.59710693359375,0.07087906450033188,0.5151811838150024,0.005403661634773016,0.021925972774624825,0.23975254595279694,0.035637520253658295
1.0,0.09812805,0.6298409,0,0.006047912873327732,1.0035072565078735,-2.5971832275390625,0.07083313912153244,0.5170801281929016,0.005669774487614632,0.024593936279416084,0.23558230698108673,0.03751553222537041
1.0,0.09812805,0.6298409,0,0.006325026508420706,1.0077110528945923,-2.597259521484375,0.07078678905963898,0.5189950466156006,0.005990088451653719,0.023702844977378845,0.23766303062438965,0.044167038053274155
1.0,0.09812805,0.6298409,0,0.006899198982864618,1.0161571502685547,-2.5973968505859375,0.07075522840023041,0.5228444337844849,0.006572225596755743,0.026847142726182938,0.2407587170600891,0.04087807238101959
1.0,0.09812805,0.6298409,0,0.007168095093220472,1.020418643951416,-2.5974578857421875,0.0707298144698143,0.5247480273246765,0.00687346700578928,0.0276617631316185,0.23500557243824005,0.041676681488752365
1.0,0.09812805,0.6298409,0,0.007441025692969561,1.0246922969818115,-2.597503662109375,0.07065340876579285,0.5266274213790894,0.007116640917956829,0.021156806498765945,0.23221582174301147,0.03430852293968201
1.0,0.09812805,0.6298409,0,0.007720320951193571,1.0289784669876099,-2.5975494384765625,0.07060033828020096,0.5285428166389465,0.007340424228459597,0.023236151784658432,0.23688733577728271,0.03177160024642944
1.0,0.09812805,0.6298409,0,0.008006115444004536,1.033277153968811,-2.59759521484375,0.07060131430625916,0.530409574508667,0.007205903064459562,0.029177194461226463,0.2309676706790924,-0.01312605943530798
1.0,0.09812805,0.6298409,0,0.008281797170639038,1.0375959873199463,-2.59765625,0.0705636590719223,0.5323371887207031,0.007015816867351532,0.025972846895456314,0.23882022500038147,-0.019851138815283775
1.0,0.09812805,0.6298409,0,0.008852722123265266,1.0462706089019775,-2.597747802734375,0.07051197439432144,0.536010205745697,0.006764988414943218,0.026810618117451668,0.22802115976810455,-0.011320224963128567
1.0,0.09812805,0.6298409,0,0.009147943928837776,1.0506263971328735,-2.5977935791015625,0.07053330540657043,0.5379132032394409,0.00663424888625741,0.030904430896043777,0.23617735505104065,-0.012773088179528713
1.0,0.09812805,0.6298409,0,0.009449543431401253,1.0549949407577515,-2.5978240966796875,0.07051588594913483,0.5397965312004089,0.006483213976025581,0.025289250537753105,0.23385269939899445,-0.015412922017276287
1.0,0.09812805,0.6298409,0,0.009728074073791504,1.059383749961853,-2.597869873046875,0.07050135731697083,0.5416643619537354,0.006331115961074829,0.028286749497056007,0.23216386139392853,-0.015968455001711845
1.0,0.09812805,0.6298409,0,0.010297680273652077,1.068198561668396,-2.5979461669921875,0.07054037600755692,0.5455152988433838,0.0063061947003006935,0.03778811916708946,0.2461310178041458,0.00560935540124774
1.0,0.09812805,0.6298409,0,0.010592751204967499,1.0726258754730225,-2.5979766845703125,0.07055395841598511,0.5474964380264282,0.006340325810015202,0.03038519248366356,0.2467569261789322,0.007062684278935194
1.0,0.09812805,0.6298409,0,0.01114325039088726,1.0815629959106445,-2.5980377197265625,0.07059185951948166,0.55149906873703,0.006566700059920549,0.036977678537368774,0.2522001266479492,0.0217901524156332
1.0,0.09812805,0.6298409,0,0.011429156176745892,1.0860518217086792,-2.59808349609375,0.07062666118144989,0.5535553693771362,0.006799684837460518,0.0337948203086853,0.2549639642238617,0.03229360654950142
1.0,0.09812805,0.6298409,0,0.011721811257302761,1.0905543565750122,-2.598114013671875,0.07063089311122894,0.555586040019989,0.006980841048061848,0.029180239886045456,0.2518661320209503,0.02572266198694706
1.0,0.09812805,0.6298409,0,0.011988887563347816,1.0950850248336792,-2.5981597900390625,0.07062442600727081,0.5576915740966797,0.007192046381533146,0.03067154251039028,0.2606073319911957,0.029693355783820152
1.0,0.09812805,0.6298409,0,0.01254099141806364,1.1041884422302246,-2.5982208251953125,0.07072943449020386,0.5618948936462402,0.007631621323525906,0.03324645385146141,0.25944778323173523,0.03125704452395439
1.0,0.09812805,0.6298409,0,0.0128256781026721,1.1087610721588135,-2.5982513427734375,0.07074841856956482,0.5639875531196594,0.007868235930800438,0.03248453885316849,0.25938913226127625,0.032599080353975296
1.1,0.107383355,0.68586135,0,0.013079364784061909,1.113372802734375,-2.5982818603515625,0.07076779007911682,0.5661411881446838,0.008043719455599785,0.0363670252263546,0.2649877965450287,0.02486957050859928
1.1,0.107383355,0.68586135,0,0.013340471312403679,1.117998480796814,-2.598297119140625,0.07076296955347061,0.5682267546653748,0.00831700675189495,0.03243708983063698,0.2566089630126953,0.036879438906908035
1.1,0.107383355,0.68586135,0,0.013883745297789574,1.1272906064987183,-2.5983123779296875,0.07076580077409744,0.5723819136619568,0.008784799836575985,0.032034069299697876,0.2546827793121338,0.033134590834379196
1.1,0.107383355,0.68586135,0,0.01414053700864315,1.1319855451583862,-2.59832763671875,0.07076437026262283,0.5743919014930725,0.009024549275636673,0.03341972455382347,0.24504995346069336,0.032487787306308746
1.1,0.107383355,0.68586135,0,0.01440432108938694,1.1366926431655884,-2.59832763671875,0.07073294371366501,0.5763600468635559,0.009265949949622154,0.02877657674252987,0.24005107581615448,0.03262096643447876
1.1,0.107383355,0.68586135,0,0.014675170183181763,1.1414121389389038,-2.59832763671875,0.07075721770524979,0.5783118009567261,0.00930167268961668,0.03486891835927963,0.23823218047618866,0.006840098183602095
1.1,0.107383355,0.68586135,0,0.014948931522667408,1.1461436748504639,-2.59832763671875,0.07077169418334961,0.5802448391914368,0.009048236533999443,0.033982545137405396,0.23623482882976532,-0.029362736269831657
1.1,0.107383355,0.68586135,0,0.015456094406545162,1.1557213068008423,-2.5983428955078125,0.07075666636228561,0.5843110084533691,0.008702155202627182,0.03774144500494003,0.2413148283958435,-0.01042988058179617
1.1,0.107383355,0.68586135,0,0.01572086289525032,1.1605284214019775,-2.598358154296875,0.07081550359725952,0.5863018035888672,0.008545654825866222,0.04068556800484657,0.24070006608963013,-0.01686764694750309
1.1,0.107383355,0.68586135,0,0.01599285751581192,1.1653475761413574,-2.5983734130859375,0.07084139436483383,0.5882846713066101,0.008398637175559998,0.03568560630083084,0.23998653888702393,-0.015760770067572594
1.1,0.107383355,0.68586135,0,0.016475029289722443,1.1750863790512085,-2.5984039306640625,0.07080820947885513,0.5922843813896179,0.00808936357498169,0.032833270728588104,0.24233002960681915,-0.014418735168874264
1.1,0.107383355,0.68586135,0,0.016727082431316376,1.1799734830856323,-2.598419189453125,0.07080359011888504,0.5942614078521729,0.007973282597959042,0.03414925932884216,0.23754163086414337,-0.01218682061880827
1.1,0.107383355,0.68586135,0,0.01698174700140953,1.1848721504211426,-2.5984344482421875,0.07082388550043106,0.5962937474250793,0.007963293232023716,0.03775091841816902,0.24488410353660583,0.0010193324415013194
1.1,0.107383355,0.68586135,0,0.01719668321311474,1.189824104309082,-2.5984344482421875,0.07076402008533478,0.5984005331993103,0.008022553287446499,0.032247334718704224,0.25091731548309326,0.009246169589459896
1.1,0.107383355,0.68586135,0,0.017649270594120026,1.1997647285461426,-2.59844970703125,0.07066863030195236,0.6026628017425537,0.008105597458779812,0.028903409838676453,0.2519073188304901,0.01110322680324316
1.1,0.107383355,0.68586135,0,0.01788652315735817,1.2047535181045532,-2.59844970703125,0.0706404596567154,0.6048086285591125,0.0082216402515769,0.033162545412778854,0.2568446099758148,0.01618405617773533
1.1,0.107383355,0.68586135,0,0.018131073564291,1.209755301475525,-2.59844970703125,0.07062768191099167,0.6069933176040649,0.008372653275728226,0.034121859818696976,0.2620234489440918,0.02050492726266384
1.1,0.107383355,0.68586135,0,0.01831274852156639,1.2148088216781616,-2.59844970703125,0.07057124376296997,0.6091505289077759,0.008538102731108665,0.035320915281772614,0.25544795393943787,0.02240855060517788
1.1,0.107383355,0.68586135,0,0.018502691760659218,1.2198747396469116,-2.5984344482421875,0.07052818685770035,0.6113392114639282,0.008667790330946445,0.0358765572309494,0.2597735524177551,0.017886048182845116
1.2000000000000002,0.11672504,0.7416785,0,0.018903033807873726,1.2300430536270142,-2.5984344482421875,0.07052507251501083,0.6156565546989441,0.00906477402895689,0.040987055748701096,0.2601930499076843,0.027946660295128822
1.2000000000000002,0.11672504,0.7416785,0,0.019046956673264503,1.2351973056793213,-2.59844970703125,0.0705096572637558,0.61781907081604,0.009258548729121685,0.044620972126722336,0.2524164319038391,0.02614687941968441
1.2000000000000002,0.11672504,0.7416785,0,0.0192002784460783,1.2403631210327148,-2.59844970703125,0.07051096111536026,0.6200324892997742,0.00950306560844183,0.04548971727490425,0.2592621147632599,0.03243144229054451
1.2000000000000002,0.11672504,0.7416785,0,0.01953301578760147,1.2507301568984985,-2.5984344482421875,0.07037593424320221,0.6242285370826721,0.009942766278982162,0.040088143199682236,0.23813587427139282,0.02434244193136692
1.2000000000000002,0.11672504,0.7416785,0,0.019646812230348587,1.2559806108474731,-2.5984344482421875,0.07026633620262146,0.6262987852096558,0.010091829113662243,0.03510741889476776,0.23776642978191376,0.020352190360426903
1.2000000000000002,0.11672504,0.7416785,0,0.01976972445845604,1.2612413167953491,-2.5984344482421875,0.07014638930559158,0.6283425688743591,0.010266094468533993,0.03253919631242752,0.23506873846054077,0.023451166227459908
1.2000000000000002,0.11672504,0.7416785,0,0.01990176923573017,1.2665120363235474,-2.598419189453125,0.07009247690439224,0.6303733587265015,0.010473089292645454,0.039549943059682846,0.23404692113399506,0.027340369299054146
1.2000000000000002,0.11672504,0.7416785,0,0.02004307322204113,1.271793007850647,-2.598388671875,0.07003619521856308,0.6323732137680054,0.01048877090215683,0.038044966757297516,0.23076386749744415,0.0033825633581727743
1.2000000000000002,0.11672504,0.7416785,0,0.020199449732899666,1.2824863195419312,-2.5983428955078125,0.06990086287260056,0.6363708972930908,0.009882621467113495,0.04589168727397919,0.22817878425121307,-0.04052463546395302
1.2000000000000002,0.11672504,0.7416785,0,0.02029266208410263,1.287846565246582,-2.59832763671875,0.06977742910385132,0.638276219367981,0.009648560546338558,0.035457734018564224,0.21565456688404083,-0.028534790500998497
1.3,0.12615992,0.79727536,0,0.020395420491695404,1.2932153940200806,-2.598297119140625,0.06969481706619263,0.6401687264442444,0.009413391351699829,0.039243653416633606,0.21470195055007935,-0.028695909306406975
1.3,0.12615992,0.79727536,0,0.02048550546169281,1.3040845394134521,-2.5982666015625,0.06952513009309769,0.6441546082496643,0.00901777669787407,0.04377862438559532,0.22165566682815552,-0.022117046639323235
1.3,0.12615992,0.79727536,0,0.02054635062813759,1.3095319271087646,-2.5982513427734375,0.06942310929298401,0.6460949182510376,0.008849706500768661,0.041000813245773315,0.21751107275485992,-0.020529141649603844
1.3,0.12615992,0.79727536,0,0.020617477595806122,1.3149878978729248,-2.598236083984375,0.06935839354991913,0.6480383276939392,0.008712937124073505,0.044264692813158035,0.21858325600624084,-0.01663295365869999
1.3,0.12615992,0.79727536,0,0.020628144964575768,1.3204962015151978,-2.5982208251953125,0.06922059506177902,0.650018036365509,0.00860487949103117,0.042136672884225845,0.21939703822135925,-0.012819654308259487
1.3,0.12615992,0.79727536,0,0.02067348174750805,1.3315372467041016,-2.59820556640625,0.0690469890832901,0.6539981961250305,0.008400180377066135,0.04738825187087059,0.22498664259910583,-0.01876707933843136
1.3,0.12615992,0.79727536,0,0.020712411031126976,1.3370709419250488,-2.5981903076171875,0.06896428763866425,0.6560211181640625,0.008063552901148796,0.04587310925126076,0.22716660797595978,-0.04144338518381119
1.3,0.12615992,0.79727536,0,0.020697150379419327,1.3426575660705566,-2.5981903076171875,0.06888912618160248,0.6581653952598572,0.007753369864076376,0.05312583968043327,0.23850007355213165,-0.037928108125925064
1.3,0.12615992,0.79727536,0,0.02069377340376377,1.3482537269592285,-2.5981903076171875,0.06884843111038208,0.6603400707244873,0.007522392552345991,0.05580864101648331,0.24308891594409943,-0.02814689464867115
1.3,0.12615992,0.79727536,0,0.020701903849840164,1.3538594245910645,-2.5981903076171875,0.06875204294919968,0.662477433681488,0.0073448652401566505,0.04726029559969902,0.23918402194976807,-0.02148980088531971
1.3,0.12615992,0.79727536,0,0.020721077919006348,1.3594752550125122,-2.5981903076171875,0.06867262721061707,0.6647462844848633,0.007141058798879385,0.04783407226204872,0.25636017322540283,-0.024798324331641197
1.3,0.12615992,0.79727536,0,0.020665854215621948,1.3707993030548096,-2.598175048828125,0.06852541118860245,0.669442892074585,0.006743232719600201,0.053615618497133255,0.2659209668636322,-0.02010166458785534
1.3,0.12615992,0.79727536,0,0.020654374733567238,1.3764783143997192,-2.598175048828125,0.06852706521749496,0.6718658208847046,0.006645245477557182,0.0617402084171772,0.2752625048160553,-0.011802184395492077
1.3,0.12615992,0.79727536,0,0.02066797763109207,1.3878732919692993,-2.598175048828125,0.06857145577669144,0.6768461465835571,0.006640155334025621,0.058930546045303345,0.2843533456325531,0.008458270691335201
1.3,0.12615992,0.79727536,0,0.02064509503543377,1.393621563911438,-2.5981597900390625,0.06856018304824829,0.6794013977050781,0.006735769100487232,0.06103616952896118,0.29104021191596985,0.012004281394183636
1.3,0.12615992,0.79727536,0,0.020634232088923454,1.3993829488754272,-2.59814453125,0.06850890815258026,0.6820462346076965,0.0068664392456412315,0.054409898817539215,0.3030312955379486,0.016382893547415733
1.3,0.12615992,0.79727536,0,0.0206353310495615,1.4051584005355835,-2.5981292724609375,0.06852136552333832,0.6847717761993408,0.00704396003857255,0.060792673379182816,0.3138986825942993,0.022236255928874016
1.3,0.12615992,0.79727536,0,0.020636605098843575,1.4167839288711548,-2.5980987548828125,0.0685616284608841,0.6901917457580566,0.007389335427433252,0.0619545578956604,0.3106880784034729,0.01947767846286297
1.3,0.12615992,0.79727536,0,0.02063320390880108,1.4226337671279907,-2.5980682373046875,0.0686415433883667,0.692925214767456,0.007646520156413317,0.07018636912107468,0.31457093358039856,0.032012347131967545
1.4000000000000001,0.13569474,0.8526351,0,0.020642239600419998,1.4284981489181519,-2.5980377197265625,0.06869393587112427,0.6957175731658936,0.007935873232781887,0.06517896056175232,0.3227144777774811,0.03603612631559372
1.4000000000000001,0.13569474,0.8526351,0,0.020663492381572723,1.4343770742416382,-2.597991943359375,0.06876159459352493,0.6984691619873047,0.008188718929886818,0.06555899232625961,0.318389356136322,0.03122817538678646
1.4000000000000001,0.13569474,0.8526351,0,0.020667664706707,1.4462476968765259,-2.5978851318359375,0.06884545832872391,0.7039584517478943,0.00865744799375534,0.06928985565900803,0.3103730380535126,0.027556436136364937
1.4000000000000001,0.13569474,0.8526351,0,0.020688487216830254,1.4522038698196411,-2.5978240966796875,0.06893528997898102,0.7066733837127686,0.00887822825461626,0.06792233884334564,0.31304100155830383,0.027091706171631813
1.4000000000000001,0.13569474,0.8526351,0,0.020721478387713432,1.4581739902496338,-2.5977783203125,0.06901248544454575,0.7093431353569031,0.00907518994063139,0.06486903131008148,0.30819928646087646,0.024129169061779976
1.4000000000000001,0.13569474,0.8526351,0,0.020735476166009903,1.4641928672790527,-2.5977020263671875,0.06912457197904587,0.7119869589805603,0.00928579457104206,0.07159583270549774,0.3021408021450043,0.02546747960150242
1.4000000000000001,0.13569474,0.8526351,0,0.020762037485837936,1.4702248573303223,-2.597625732421875,0.06920690834522247,0.7145934104919434,0.009470818564295769,0.06638016551733017,0.2983468472957611,0.02229492925107479
1.4000000000000001,0.13569474,0.8526351,0,0.020795434713363647,1.4762696027755737,-2.5975494384765625,0.0692923367023468,0.7171615362167358,0.009428588673472404,0.06699714809656143,0.2945261001586914,-0.006070825736969709
1.4000000000000001,0.13569474,0.8526351,0,0.02087230607867241,1.488440752029419,-2.5973968505859375,0.06947758793830872,0.7223026752471924,0.008873765356838703,0.06688841432332993,0.2890087068080902,-0.04272441938519478
1.4000000000000001,0.13569474,0.8526351,0,0.020915985107421875,1.4945660829544067,-2.597320556640625,0.06959819793701172,0.7247788310050964,0.008695915341377258,0.07016775757074356,0.28089386224746704,-0.022878868505358696
1.5,0.14533615,0.9077407,0,0.021041275933384895,1.5068517923355103,-2.5971832275390625,0.07001900672912598,0.7297471165657043,0.008310255594551563,0.08035845309495926,0.2831580340862274,-0.028010455891489983
1.5,0.14533615,0.9077407,0,0.02109636180102825,1.5130571126937866,-2.59710693359375,0.07015153765678406,0.73222815990448,0.00810936652123928,0.07064353674650192,0.2790623605251312,-0.0256709735840559
1.5,0.14533615,0.9077407,0,0.021163973957300186,1.5192736387252808,-2.5970458984375,0.07033687829971313,0.734734833240509,0.007968844845890999,0.07584198564291,0.28318098187446594,-0.018109099939465523
1.5,0.14533615,0.9077407,0,0.021243928000330925,1.5255014896392822,-2.5969696044921875,0.070505790412426,0.73716139793396,0.007862000726163387,0.07241611182689667,0.2740432322025299,-0.013870651833713055
1.5,0.14533615,0.9077407,0,0.021329369395971298,1.5317405462265015,-2.5969085693359375,0.07069642841815948,0.7396187782287598,0.0077782077714800835,0.07594744861125946,0.2788989245891571,-0.010953749530017376
1.5,0.14533615,0.9077407,0,0.021501092240214348,1.5443419218063354,-2.5967864990234375,0.07101725041866302,0.7446229457855225,0.00782260112464428,0.07054328173398972,0.282004177570343,0.000612810195889324
1.5,0.14533615,0.9077407,0,0.021604984998703003,1.5506590604782104,-2.5967254638671875,0.07120116800069809,0.7470426559448242,0.007867655716836452,0.07347933948040009,0.2720370888710022,0.005600507836788893
1.5,0.14533615,0.9077407,0,0.02172083780169487,1.5569875240325928,-2.5966644287109375,0.07142320275306702,0.7495556473731995,0.007885840721428394,0.07693634927272797,0.28452950716018677,0.0022407618816941977
1.5,0.14533615,0.9077407,0,0.021817248314619064,1.5633606910705566,-2.596588134765625,0.07170946896076202,0.7520408034324646,0.007985207252204418,0.08741771429777145,0.27816078066825867,0.012043396942317486
1.5,0.14533615,0.9077407,0,0.02192644029855728,1.5697448253631592,-2.596527099609375,0.07191861420869827,0.7545120716094971,0.007934385910630226,0.07643213868141174,0.27729523181915283,-0.006721354555338621
1.5,0.14533615,0.9077407,0,0.022174904122948647,1.5825468301773071,-2.59637451171875,0.07244743406772614,0.7594399452209473,0.007397564128041267,0.08660873025655746,0.27747246623039246,-0.03794580325484276
1.5,0.14533615,0.9077407,0,0.022314464673399925,1.5889647006988525,-2.5962982177734375,0.07271189242601395,0.7618649005889893,0.007174286525696516,0.08160486817359924,0.274049311876297,-0.02848449908196926
1.5,0.14533615,0.9077407,0,0.022567790001630783,1.6018834114074707,-2.5961761474609375,0.07324136048555374,0.7668019533157349,0.006802049931138754,0.08084716647863388,0.281453937292099,-0.025330109521746635
